aX,aY,aZ,gX,gY,gZ,mX,mY,mZ,Label,
-0.02,0.04,1.01,-0.06,0.12,-0.18,-36,38,28,1,
-0.02,0.04,1.01,-0.06,0.12,-0.24,-37,36,31,1,
-0.02,0.04,1.01,0.06,-0.06,-0.12,-39,39,33,1,
-0.02,0.04,1.01,-0.06,0,-0.18,-38,37,32,1,
-0.02,0.04,1.01,0,0.12,-0.18,-38,38,29,1,
-0.02,0.04,1.01,0.06,0,-0.06,-38,38,30,1,
-0.02,0.04,1.01,0.06,0.12,-0.06,-39,38,32,1,
-0.02,0.04,1.01,0.06,0.18,-0.12,-36,40,31,1,
-0.02,0.04,1.01,0,0.12,-0.18,-36,40,32,1,
-0.02,0.04,1.01,0,0.06,-0.12,-38,41,35,1,
-0.02,0.04,1.01,0.06,0.06,-0.18,-36,40,30,1,
-0.02,0.04,1.01,0.12,0.43,0,-39,38,32,1,
-0.02,0.04,1.01,0.06,0.24,-0.18,-38,38,33,1,
-0.02,0.04,1.01,-0.06,0.12,-0.18,-38,40,37,1,
-0.02,0.04,1.01,0,0.06,-0.18,-37,38,31,1,
-0.02,0.04,1.01,0,0.12,-0.12,-37,39,37,1,
-0.02,0.04,1.01,0,0.06,-0.18,-38,38,27,1,
-0.02,0.04,1.01,0,0.12,-0.12,-38,39,30,1,
-0.02,0.04,1.01,0,0,-0.06,-39,35,36,1,
-0.02,0.04,1.01,0.12,0.12,-0.06,-39,38,30,1,
-0.02,0.04,1.01,0.06,0.24,-0.12,-38,36,32,1,
-0.02,0.04,1.01,0,0.12,-0.06,-39,39,31,1,
-0.02,0.04,1.01,0.06,0.18,-0.18,-37,40,34,1,
-0.02,0.04,1.01,0,0.12,-0.12,-39,38,33,1,
-0.02,0.04,1.01,0,0.12,-0.18,-38,38,32,1,
-0.02,0.04,1.01,-0.06,0.18,-0.18,-35,37,32,1,
-0.02,0.04,1.01,-0.06,0.06,-0.12,-37,38,34,1,
-0.02,0.04,1.01,0,0.06,-0.12,-41,39,33,1,
-0.02,0.04,1.01,0,0.12,-0.18,-38,37,31,1,
-0.02,0.04,1.01,-0.06,0.06,-0.18,-38,38,32,1,
-0.02,0.04,1.01,-0.06,0.06,-0.06,-39,38,34,1,
-0.02,0.04,1.01,0,0.12,-0.24,-38,39,31,1,
-0.02,0.04,1.01,0.06,0.12,-0.12,-38,38,34,1,
-0.02,0.04,1.01,-0.06,0.12,-0.12,-37,38,29,1,
-0.02,0.04,1.01,0,0.06,-0.06,-38,37,36,1,
-0.02,0.04,1.01,0,0.18,-0.18,-39,38,30,1,
-0.02,0.04,1.01,0,0.06,-0.06,-39,36,28,1,
-0.02,0.04,1.01,0.06,0,-0.06,-38,38,31,1,
-0.02,0.04,1.01,-0.06,0.12,-0.12,-37,38,31,1,
-0.02,0.04,1.01,0,0.12,-0.18,-36,38,29,1,
-0.02,0.04,1.01,-0.06,0.06,-0.18,-39,37,34,1,
-0.02,0.04,1.01,0.06,0.06,-0.12,-38,38,34,1,
-0.02,0.04,1.01,-0.06,0.06,-0.12,-39,37,34,1,
-0.02,0.04,1.01,0,0,-0.12,-38,38,33,1,
-0.02,0.04,1.01,0.06,0.18,-0.12,-38,36,33,1,
-0.02,0.04,1.01,-0.06,0.12,-0.12,-39,40,31,1,
-0.02,0.04,1.01,0.06,0,-0.12,-36,38,30,1,
-0.02,0.04,1.01,0.12,0.12,-0.18,-36,37,32,1,
-0.02,0.04,1.01,-0.06,0.12,-0.18,-39,38,24,1,
-0.02,0.04,1.01,0,0.06,-0.06,-38,37,32,1,
-0.02,0.04,1.01,-0.06,0.12,-0.12,-38,41,29,1,
-0.02,0.04,1.01,-0.06,0.12,-0.24,-38,38,30,1,
-0.02,0.04,1.01,0,0.12,0,-37,41,34,1,
-0.02,0.04,1.01,-0.06,0.06,-0.06,-36,39,31,1,
-0.02,0.04,1.01,-0.06,0.18,-0.12,-36,39,29,1,
-0.02,0.04,1.01,0.06,0.12,-0.12,-38,41,30,1,
-0.02,0.04,1.01,0.06,0.06,-0.12,-37,37,34,1,
-0.02,0.04,1.01,-0.12,0.12,-0.18,-39,39,31,1,
-0.02,0.04,1.01,-0.12,0.12,-0.12,-39,38,34,1,
-0.02,0.04,1.01,-0.06,0,-0.12,-37,36,32,1,
-0.02,0.04,1.01,-0.06,0,-0.12,-37,39,31,1,
-0.02,0.04,1.01,-0.18,0,-0.18,-37,37,35,1,
-0.02,0.04,1.01,0,0.06,-0.06,-36,38,32,1,
-0.02,0.04,1.01,0,0.06,-0.06,-38,39,31,1,
-0.02,0.04,1.01,0.06,0.12,-0.18,-36,38,34,1,
-0.02,0.04,1.01,0.06,0.12,0,-36,37,28,1,
-0.02,0.04,1.01,0.06,0.06,-0.12,-39,38,33,1,
-0.02,0.04,1.01,0,0,-0.18,-35,38,34,1,
-0.02,0.04,1.01,0.06,0,-0.12,-39,38,36,1,
-0.02,0.04,1.01,-0.06,0,-0.18,-39,39,31,1,
-0.02,0.04,1.01,-0.06,0.12,-0.12,-38,38,31,1,
-0.02,0.04,1.01,0.12,0.06,-0.12,-37,38,34,1,
-0.02,0.04,1.01,-0.06,0.18,-0.06,-39,38,36,1,
-0.02,0.04,1.01,0.06,0.12,-0.06,-38,38,29,1,
-0.02,0.04,1.01,0.06,0.12,-0.12,-39,39,41,1,
-0.02,0.04,1.01,0,0,-0.06,-39,38,32,1,
-0.02,0.04,1.01,-0.06,0.12,-0.18,-36,39,29,1,
-0.02,0.04,1.01,-0.06,0.12,-0.24,-36,42,32,1,
-0.02,0.04,1.01,-0.06,0.06,-0.18,-37,38,35,1,
-0.02,0.04,1.01,0,0.06,-0.12,-39,36,29,1,
-0.02,0.04,1.01,0,0.06,-0.12,-39,39,36,1,
-0.02,0.04,1.01,-0.06,0.12,-0.06,-39,38,32,1,
-0.02,0.04,1.01,0,0,-0.12,-38,36,33,1,
-0.02,0.04,1.01,0,0.18,-0.12,-40,39,31,1,
-0.02,0.04,1.01,0,0.12,-0.12,-40,36,34,1,
-0.02,0.04,1.01,0,0.12,-0.12,-38,38,32,1,
-0.02,0.04,1.01,-0.06,0.06,-0.18,-38,38,35,1,
-0.02,0.04,1.01,0.06,0.06,-0.12,-36,39,33,1,
-0.02,0.04,1.01,-0.06,0.12,-0.24,-39,38,32,1,
-0.02,0.04,1.01,0,0.24,-0.12,-37,38,29,1,
-0.02,0.04,1.01,-0.06,0,-0.18,-38,38,30,1,
-0.02,0.04,1.01,0,0.12,-0.18,-38,38,31,1,
-0.02,0.04,1.01,-0.06,0.06,-0.24,-39,39,31,1,
-0.02,0.04,1.01,0,0.06,-0.18,-37,40,29,1,
-0.02,0.04,1.01,0.06,0,-0.06,-39,39,32,1,
-0.02,0.04,1.01,-0.12,0,-0.12,-40,40,32,1,
-0.02,0.04,1.01,-0.12,0.06,-0.12,-41,39,30,1,
-0.02,0.04,1.01,0,0,-0.06,-39,40,35,1,
-0.02,0.04,1.01,0.06,0.06,-0.12,-36,41,36,1,
-0.02,0.04,1.01,0,0,-0.12,-37,38,35,1,
-0.02,0.04,1.01,0,0.12,-0.24,-37,39,34,1,
-0.02,0.04,1.01,0.06,0.18,-0.18,-38,37,30,1,
-0.02,0.04,1.01,-0.06,0.12,-0.12,-38,37,29,1,
-0.02,0.04,1.01,0.12,0.12,-0.06,-38,40,33,1,
-0.02,0.04,1.01,0.06,0.24,-0.24,-40,39,31,1,
-0.02,0.04,1.01,0,0.12,-0.12,-38,38,34,1,
-0.02,0.04,1.01,0.06,0.12,-0.18,-39,37,27,1,
-0.02,0.04,1.01,0,0.18,-0.12,-40,39,31,1,
-0.02,0.04,1.01,0.12,0.31,0,-36,37,31,1,
-0.02,0.04,1.01,-0.06,0.06,0,-38,41,30,1,
-0.02,0.04,1.01,0,0,-0.18,-37,38,40,1,
-0.02,0.04,1.01,0,0.12,-0.18,-38,37,31,1,
-0.02,0.04,1.01,-0.06,0.18,-0.12,-37,39,32,1,
-0.02,0.04,1.01,0,0.18,-0.18,-38,38,33,1,
-0.02,0.04,1.01,0,0.31,-0.18,-38,37,30,1,
-0.02,0.04,1.01,0.43,0.67,0.06,-36,36,31,1,
-0.02,0.04,1.01,0.12,0.37,-0.18,-39,40,33,1,
-0.02,0.04,1.01,0.12,0.18,-0.12,-38,37,34,1,
-0.02,0.04,1.01,0,0.12,-0.18,-37,39,29,1,
-0.02,0.04,1.01,0,0.12,-0.18,-38,35,31,1,
-0.02,0.04,1.01,-0.06,0.12,-0.24,-39,38,35,1,
-0.02,0.04,1.01,0.06,0.12,-0.18,-38,41,28,1,
-0.02,0.04,1.01,0,0.12,-0.18,-37,37,33,1,
-0.01,0.06,0.98,-2.75,-0.43,3.78,-37,40,29,1,
-0.01,0.03,1.01,-0.31,1.16,-0.85,-40,39,35,1,
-0.01,0.03,1.01,0.67,0.31,-0.31,-37,39,33,1,
-0.01,0.03,1.01,-0.49,-0.06,0.06,-38,38,32,1,
-0.01,0.03,1.01,0.31,0.12,-0.12,-36,37,32,1,
-0.01,0.03,1.01,-0.55,0.67,-1.77,-39,37,32,1,
0,0.03,1.01,-0.31,0.24,-0.06,-36,38,38,1,
-0.01,0.03,1.01,-0.67,0.92,0.06,-38,38,31,1,
-0.01,0.03,1.01,0.24,0.67,1.04,-37,39,33,1,
0,0.03,1.01,0.18,0,-0.24,-39,37,34,1,
0,0.03,1.01,0.24,0.31,-0.06,-38,38,30,1,
0,0.03,1.01,0.61,0.18,-0.61,-37,37,33,1,
0,0.03,1.01,-0.06,0.12,-0.49,-39,38,31,1,
0,0.03,1.01,-0.37,0.18,1.16,-36,38,32,1,
0,0.03,1.01,-0.06,-0.06,0,-38,35,35,1,
0,0.04,1.01,-3.23,-0.67,-1.22,-38,36,33,1,
0,0.04,1.01,-0.73,-0.37,-4.76,-37,38,31,1,
-0.01,0.06,1,1.46,-0.06,-0.61,-38,38,33,1,
0,0.03,1.01,0.67,0.49,-1.71,-38,37,34,1,
0,0.03,1.01,0.49,0.85,0.18,-37,39,32,1,
0,0.03,1.01,0.49,0.06,-0.24,-39,38,34,1,
0,0.03,1.01,2.81,1.59,0.12,-39,38,28,1,
0,0.02,1.01,0.31,-0.37,0.85,-39,37,34,1,
0,0.03,1.01,-3.72,-2.56,0.67,-38,39,36,1,
0,0.03,1.02,-6.41,-1.04,0.24,-38,39,36,1,
-0.02,0.04,1.01,-2.56,0.49,-10.62,-37,37,33,1,
0,0.03,1.01,-0.06,-0.12,-0.12,-37,38,35,1,
-0.01,0.03,1.01,0.37,0.12,-1.46,-38,39,33,1,
0,0.03,1.01,0.37,-0.18,-4.03,-36,37,33,1,
0,0.03,1.01,0.37,-0.49,-7.63,-39,38,35,1,
-0.01,0.03,1.01,-0.06,-0.24,-4.88,-36,39,33,1,
0,0.03,1.01,0,-0.31,-6.16,-35,38,31,1,
0,0.03,1.01,0,-0.06,-4.03,-36,41,29,1,
0,0.03,1.01,0.06,-0.37,-9.09,-36,36,35,1,
-0.01,0.03,1.01,0.18,-0.98,-19.78,-34,36,27,1,
0,0.03,1.01,-0.06,-0.31,-11.29,-35,38,30,1,
0,0.03,1.01,0.12,-0.12,-2.81,-35,36,33,1,
-0.01,0.03,1.01,-0.06,-0.06,-4.33,-33,39,31,1,
0,0.03,1.01,-0.06,-0.18,-5,-33,38,34,1,
-0.01,0.03,1.01,-0.06,-0.49,-9.89,-33,38,31,1,
-0.01,0.03,1.01,-0.06,-0.31,-10.74,-31,37,34,1,
0,0.03,1.01,-0.43,-0.49,-17.09,-33,37,35,1,
0,0.03,1.01,-0.18,-0.18,-7.39,-34,36,32,1,
0,0.03,1.01,-0.06,0.06,-0.92,-31,35,31,1,
-0.01,0.03,1.01,-0.06,0.06,0,-30,35,34,1,
-0.01,0.03,1.01,0,0.12,0.24,-31,38,34,1,
-0.01,0.03,1.01,0.06,0.12,0.24,-32,37,31,1,
0,0.03,1.01,-0.06,0.06,1.4,-32,36,29,1,
-0.01,0.03,1.01,-0.24,0.37,3.3,-33,39,32,1,
0,0.03,1.01,-0.12,0.43,9.46,-31,35,33,1,
0,0.03,1.01,-0.37,0.49,6.77,-32,36,35,1,
0,0.03,1.01,-0.06,0.55,9.83,-31,36,32,1,
-0.01,0.04,1.01,-0.31,0.55,5.62,-31,37,33,1,
0,0.04,1.01,-0.43,0.67,6.77,-36,38,26,1,
0,0.04,1.01,-0.37,0.43,0.31,-33,39,32,1,
0,0.04,1.01,0,0.31,8,-32,37,31,1,
0,0.03,1.01,0,0.73,10.74,-35,36,34,1,
0,0.04,1.01,-0.12,0.37,4.82,-34,36,33,1,
0,0.04,1.01,-0.12,0.73,8.18,-35,37,32,1,
-0.01,0.04,1.01,0,0.55,9.03,-35,36,34,1,
0,0.04,1.01,0,0.61,11.9,-38,38,31,1,
-0.01,0.04,1.01,0.06,0.79,13.37,-36,38,31,1,
0,0.04,1.01,0.12,0.73,13.18,-36,37,33,1,
0,0.04,1.01,0.06,0.85,12.82,-37,38,34,1,
0,0.03,1.01,0.06,0.92,13.61,-36,37,28,1,
0,0.04,1.01,0,0.73,11.17,-39,37,33,1,
0,0.04,1.01,0,0.73,12.39,-38,39,35,1,
0,0.03,1.01,0.24,0.92,15.99,-38,36,33,1,
0,0.04,1.01,0.06,0.55,8.79,-41,38,33,1,
0,0.03,1.01,0.06,0.61,9.4,-41,38,37,1,
-0.01,0.04,1.01,0.18,0.55,8.18,-40,37,29,1,
0,0.04,1.01,0,0.55,6.59,-40,38,29,1,
0,0.03,1.01,0.18,1.04,15.69,-40,36,31,1,
-0.01,0.04,1.01,0,0.67,9.64,-41,38,33,1,
-0.01,0.04,1.01,0.06,0.67,10.8,-42,39,31,1,
0,0.03,1.01,0.18,0.73,12.15,-44,35,28,1,
0,0.04,1.01,-0.06,0.49,8,-41,38,34,1,
0,0.03,1.01,0.12,0.55,8.24,-44,39,29,1,
0,0.03,1.01,-0.06,0.67,11.17,-42,38,33,1,
0,0.03,1.01,0.06,0.67,11.6,-45,38,33,1,
0,0.03,1.01,0.06,0.49,6.65,-43,36,36,1,
0,0.03,1.01,0.06,0.43,6.29,-45,38,34,1,
0,0.03,1.01,0.06,0.67,10.93,-44,37,30,1,
0,0.03,1.01,0.18,0.61,11.05,-46,36,33,1,
0,0.03,1.01,0,0.49,7.63,-46,37,32,1,
0,0.03,1.01,0.12,0.55,8,-46,38,33,1,
0,0.03,1.01,0.18,0.61,10.25,-48,37,31,1,
0,0.03,1.01,-0.06,0.18,5.37,-48,35,34,1,
0,0.03,1.01,0.12,0.61,9.22,-47,35,32,1,
0,0.03,1.01,0.06,0.55,9.09,-51,36,34,1,
0,0.03,1.01,0.12,0.67,11.41,-44,35,30,1,
0,0.03,1.01,0.31,0.67,12.08,-48,35,30,1,
0,0.03,1.01,0.31,0.73,11.41,-50,37,34,1,
0,0.03,1.01,0,0.55,9.4,-48,33,28,1,
0,0.03,1.01,0.06,0.55,9.95,-51,33,32,1,
0,0.03,1.01,0.12,1.1,16.24,-49,32,32,1,
0,0.03,1.01,0.12,0.73,12.82,-50,34,32,1,
0,0.03,1.01,0.12,0.92,14.16,-51,34,28,1,
0,0.03,1.01,0.24,0.92,16.17,-50,30,33,1,
0,0.03,1.01,0.43,1.16,16.17,-52,33,35,1,
0,0.03,1.01,0.43,1.22,18.55,-52,32,33,1,
0,0.03,1.01,0.24,1-Jan,21.97,-53,32,33,1,
0,0.03,1.01,1.04,1.22,21.18,-52,29,34,1,
0,0.02,1.01,0.12,1.04,17.4,-52,30,33,1,
0,0.02,1.01,0.37,0.98,14.89,-54,26,31,1,
0,0.02,1.01,0,0.85,16.17,-54,31,35,1,
0,0.02,1.02,3.42,1.04,17.64,-56,26,29,1,
0,0.02,1.01,0,0.79,17.52,-56,25,30,1,
0,0.02,1.01,0.31,0.85,16.24,-59,28,33,1,
0,0.01,1.01,0,0.73,15.93,-56,25,33,1,
0,0.02,1.01,0.31,0.55,15.32,-56,27,34,1,
0,0.02,1.01,0.55,0.73,15.2,-56,25,35,1,
0,0.01,1.01,0.55,0.61,16.17,-56,24,34,1,
0,0.01,1.01,0.79,0.79,17.58,-56,25,38,1,
0,0.01,1.01,0.12,0.49,11.72,-58,21,34,1,
0,0.01,1.01,0.61,0.55,10.56,-57,22,34,1,
0,0.01,1.01,0,0.43,9.28,-56,24,35,1,
0,0.01,1.01,0.24,0.18,5.55,-59,23,34,1,
0,0.01,1.01,0.24,0.73,17.4,-58,21,34,1,
0,0.01,1.01,0.55,0.79,21.42,-61,21,31,1,
0.01,0.01,1.01,1.46,0.79,18.13,-60,21,32,1,
0,0,1.01,0.12,0.49,14.65,-58,21,30,1,
0,0,1.01,0.61,0.79,21.61,-57,21,35,1,
0.01,0,1.01,0.37,0.61,18.62,-57,18,36,1,
0.01,0,1.01,0.06,0.67,23.19,-58,18,34,1,
0,0,1.01,0.61,0.67,20.69,-59,15,27,1,
0,0,1.01,0.43,0.49,13.73,-59,15,35,1,
0,0,1.01,0.24,0.43,11.29,-59,15,31,1,
0,0,1.01,0.18,0.43,13.79,-58,13,33,1,
0.01,0,1.01,0.12,0.31,14.34,-60,14,31,1,
0.01,0,1.01,0,0.67,21.91,-57,13,33,1,
0,0,1.01,0.43,0.43,14.04,-59,11,34,1,
0.01,0,1.01,0.06,0.31,13.55,-58,11,35,1,
0.01,0,1.01,0.18,0.49,17.27,-59,12,34,1,
0.01,0,1.01,0.06,0.24,9.22,-58,11,31,1,
0.01,0,1.01,0.06,0.12,6.53,-57,11,31,1,
0.01,-0.01,1.01,0.37,0.31,13.18,-58,11,38,1,
0,0,1.01,0.18,0.31,14.89,-60,11,33,1,
0,-0.01,1.01,0.79,0.49,19.1,-56,11,34,1,
0.01,-0.01,1.02,11.84,2.93,18.55,-58,8,32,1,
0.01,-0.01,1.01,0,0.24,22.09,-57,7,29,1,
0.01,-0.01,1.01,0.12,0.24,18.74,-56,7,37,1,
0,-0.01,1.01,0.37,0.24,22.89,-58,5,32,1,
0.01,-0.01,1.01,0,-0.06,24.6,-56,9,28,1,
0.01,-0.01,1.01,0.06,0.12,19.35,-54,2,34,1,
0.01,-0.01,1.01,0.18,0.24,8.18,-56,4,31,1,
0.01,-0.01,1.01,0,0.06,13.24,-55,3,31,1,
0.01,-0.01,1.01,0.24,0.24,16.54,-55,6,33,1,
0.01,-0.02,1.01,0.37,0.43,11.54,-53,2,31,1,
0,0,1.01,0.06,0.18,6.47,-52,2,32,1,
0.01,-0.01,1.01,-0.12,0.12,-0.31,-55,4,34,1,
0.01,-0.02,1.01,0.67,-0.18,1.95,-55,2,37,1,
0.01,-0.01,1.01,0,-0.12,0.06,-54,2,36,1,
0.01,-0.01,1.01,0.18,0.12,0.37,-55,3,30,1,
0.01,-0.02,1.01,0.79,-1.1,4.64,-53,5,33,1,
0.01,-0.02,1.01,-0.49,0.55,12.02,-53,4,34,1,
0.01,-0.02,1.01,0.18,0.37,1.34,-54,3,31,1,
0.01,-0.02,1.01,0.12,0.06,17.33,-55,3,38,1,
0.01,-0.01,1.01,-0.37,0.24,5.62,-53,3,34,1,
0.01,-0.02,1.01,1.16,0.55,9.4,-54,2,27,1,
0.01,-0.02,1.01,-0.31,-0.12,1.59,-51,1,33,1,
0.01,-0.02,1.01,-0.12,0.12,3.36,-53,2,32,1,
0.01,-0.02,1.01,0,-0.06,12.51,-52,3,33,1,
0.01,-0.02,1.01,-0.12,0.24,5.62,-52,1,33,1,
0.01,-0.02,1.01,-0.18,0.24,13.24,-52,2,31,1,
0.01,-0.02,1.01,-0.06,0.06,1.22,-52,2,32,1,
0.01,-0.02,1.01,-0.06,0.06,1.16,-52,2,33,1,
0.01,-0.02,1.01,0.06,0.12,5.98,-51,4,31,1,
0.01,-0.02,1.01,0.18,0,13,-52,0,32,1,
0.01,-0.02,1.01,0.12,0.06,14.28,-49,1,31,1,
0.01,-0.02,1.01,0.18,0.31,19.53,-52,1,36,1,
0.01,-0.02,1.01,0.31,0.06,18.49,-49,0,30,1,
0.01,-0.02,1.01,0.12,0.12,12.08,-51,0,33,1,
0.01,-0.02,1.01,0.31,0.24,19.84,-51,0,28,1,
0.01,-0.01,1.01,0.18,0,15.56,-47,1,34,1,
0.01,-0.02,1.01,0.18,-0.06,14.71,-47,0,30,1,
0.01,-0.02,1.01,0.18,0.06,14.1,-46,-2,33,1,
0.01,-0.02,1.01,0.06,0.18,6.84,-48,-2,37,1,
0.01,-0.02,1.01,0.49,0.24,8.12,-45,-1,34,1,
0.01,-0.02,1.01,0.24,0.06,9.03,-48,-2,28,1,
0.01,-0.02,1.01,0.06,0.12,2.56,-45,-1,33,1,
0.01,-0.02,1.01,0.06,0.12,7.32,-46,0,29,1,
0.01,-0.02,1.01,0.12,0.18,10.07,-46,-1,33,1,
0.01,-0.02,1.01,0.06,0.06,12.57,-46,-2,27,1,
0.01,-0.02,1.01,0.06,0.06,13.37,-46,0,25,1,
0.01,-0.02,1.01,0.12,0.06,7.75,-45,-2,30,1,
0.01,-0.02,1.01,0.18,0.06,14.16,-45,-3,33,1,
0.01,-0.02,1.01,0.12,-0.12,9.28,-42,0,38,1,
0.01,-0.02,1.01,0.12,0,8.06,-43,-1,33,1,
0.01,-0.02,1.01,0.24,0.18,20.2,-45,-3,29,1,
0.01,-0.02,1.01,0.06,0.12,19.1,-44,-3,32,1,
0.01,-0.02,1.01,0.18,-0.06,15.38,-42,-3,33,1,
0.01,-0.01,1.01,-0.06,0,5.37,-43,-2,34,1,
0.01,-0.02,1.01,0.06,0.12,13.31,-41,-1,31,1,
0.01,-0.02,1.01,0.18,0.12,12.88,-42,-2,35,1,
0.01,-0.02,1.01,0.12,0.12,11.11,-41,-3,31,1,
0.01,-0.02,1.01,0,0,10.99,-40,-2,28,1,
0.01,-0.02,1.01,0.18,0.24,16.6,-41,-2,33,1,
0.01,-0.02,1.01,0.06,0.12,5.68,-41,-1,30,1,
0.01,-0.02,1.01,-0.18,0.06,0.55,-40,-3,33,1,
0.01,-0.02,1.01,0.43,0.12,18.98,-38,-2,38,1,
0.01,-0.03,1.01,-0.49,-0.18,16.3,-39,-3,30,1,
0.01,-0.02,1.01,0.37,0.55,17.21,-41,-3,32,1,
0.01,-0.02,1.01,0.73,0.12,16.3,-38,-3,33,1,
0.01,-0.02,1.01,0.37,0,6.29,-39,-4,30,1,
0.02,-0.01,1.01,0.37,0,9.95,-39,-2,33,1,
0.01,-0.02,1.01,-0.06,0.43,6.23,-39,-3,33,1,
0.01,-0.03,1.01,0.06,0.31,11.66,-38,-2,31,1,
0.01,-0.01,1.01,-0.73,0.49,14.59,-38,-2,29,1,
0.01,-0.02,1.01,0.12,-1.1,2.75,-33,-2,36,1,
0.01,-0.01,1.01,-0.31,-0.18,3.48,-34,-2,31,1,
0.01,-0.02,1.01,0.18,0.24,16.54,-31,-1,31,1,
0.01,-0.01,1.01,-0.06,-0.31,5.31,-34,-3,30,1,
0.01,-0.02,1.01,0.24,-0.24,-0.67,-36,-2,27,1,
0.01,-0.01,1.01,-0.12,0,2.75,-35,0,28,1,
0.01,-0.03,1.01,-0.37,-0.24,6.16,-34,0,32,1,
0.01,-0.01,1.01,0.43,0.12,3.6,-36,-4,28,1,
0.01,-0.02,1.01,-0.12,0.31,5.37,-35,-3,31,1,
0.01,-0.02,1.01,0.79,0.24,0.67,-33,-2,27,1,
0.01,-0.02,1.01,0.61,0.12,-0.12,-34,-2,30,1,
0.01,-0.02,1.01,0.06,-0.06,0,-35,-1,32,1,
0.01,-0.02,1.01,0,-0.18,2.99,-34,-1,31,1,
0,-0.02,1.01,0.43,-0.12,14.4,-32,-2,30,1,
0.01,-0.02,1.01,0.31,0.12,16.24,-35,-2,33,1,
0.01,-0.02,1.01,0,0.12,6.84,-34,-2,27,1,
0.01,-0.02,1.01,0.18,-0.06,4.03,-34,-1,32,1,
0.01,-0.02,1.01,0.06,0.18,0,-33,-4,34,1,
0.01,-0.02,1.01,-0.06,0.06,0,-30,-4,29,1,
0.01,-0.02,1.01,0.18,0.06,5.49,-34,-3,34,1,
0.01,-0.02,1.01,0.18,0,15.01,-32,-2,30,1,
0,-0.03,1.01,0.37,-0.06,25.82,-32,-3,27,1,
0.01,-0.01,1.01,0.24,0,14.4,-31,-2,31,1,
0,-0.03,1.01,0.37,0,9.58,-32,-2,34,1,
0.01,-0.02,1.01,0.18,0.06,5.55,-31,0,31,1,
0.01,-0.02,1.01,0.12,0.12,6.9,-30,-1,29,1,
0.01,-0.03,1.01,0.12,0.06,3.54,-28,-3,30,1,
0.01,-0.03,1.01,0.18,0.12,6.59,-29,-1,34,1,
0.01,-0.03,1.01,0.24,0,7.81,-30,-1,31,1,
0.01,-0.02,1.01,-0.12,0.06,4.27,-28,-1,28,1,
0.01,-0.03,1.01,0.31,0.06,7.75,-28,-1,33,1,
0.01,-0.02,1.01,0.06,0.06,8.48,-29,-2,28,1,
0.01,-0.02,1.01,-0.18,0.12,5.86,-27,-2,27,1,
0.01,-0.02,1.01,0,-0.06,9.64,-28,-1,30,1,
0.01,-0.02,1.01,0.12,0,9.95,-28,-2,29,1,
0.01,-0.02,1.01,0.18,0.12,8.18,-27,0,31,1,
0.01,-0.03,1.01,0.31,-0.06,8.06,-24,-1,33,1,
0.01,-0.03,1.01,0.24,0.06,12.15,-26,-1,27,1,
0.01,-0.02,1.01,0.24,0,6.96,-25,0,30,1,
0.01,-0.03,1.01,0,0.06,3.78,-25,-1,34,1,
0.01,-0.02,1.01,0.18,0.06,5.31,-24,-1,27,1,
0.01,-0.02,1.01,-0.12,0.18,5.31,-24,1,31,1,
0.01,-0.02,1.01,0.18,-0.18,9.03,-24,0,34,1,
0.01,-0.02,1.01,0.24,0.12,10.31,-22,2,33,1,
0.01,-0.03,1.01,0.18,0.24,9.22,-22,0,29,1,
0.01,-0.03,1.01,0.06,0,7.81,-25,2,27,1,
0.01,-0.03,1.01,0.31,0,7.57,-22,1,34,1,
0.01,-0.03,1.01,0.24,-0.12,12.33,-21,2,29,1,
0.01,-0.03,1.01,0.18,-0.12,12.63,-22,2,29,1,
0.01,-0.03,1.01,0.24,0.12,3.11,-23,4,31,1,
0.01,-0.03,1.01,0.12,0,11.6,-22,5,28,1,
0.01,-0.03,1.01,0.31,-0.06,10.44,-20,4,30,1,
0.01,-0.03,1.01,0.31,0,8.97,-20,6,33,1,
0.01,-0.03,1.01,0.31,-0.06,10.93,-19,6,35,1,
0.01,-0.03,1.01,0.24,-0.06,10.19,-22,6,36,1,
0.01,-0.03,1.01,0.31,-0.06,8.54,-19,7,36,1,
0.01,-0.03,1.01,0.31,0,12.39,-20,8,31,1,
0.01,-0.03,1.01,0.24,0.12,7.39,-20,7,31,1,
0.01,-0.03,1.01,0.06,-0.06,7.75,-20,7,28,1,
0.01,-0.03,1.01,0.31,0,10.01,-19,6,31,1,
0.01,-0.03,1.01,0.12,0,13,-23,8,29,1,
0.01,-0.03,1.01,0.37,0.06,10.25,-17,10,31,1,
0.01,-0.03,1.01,0.06,0.06,8.79,-19,8,30,1,
0.01,-0.03,1.01,0.12,-0.06,11.35,-19,9,29,1,
0.01,-0.03,1.01,-0.67,-0.24,7.81,-18,12,32,1,
0.01,-0.03,1.01,0.18,-0.12,12.39,-19,12,28,1,
0.01,-0.03,1.01,0.61,0.12,11.41,-18,12,28,1,
0.01,-0.03,1.01,-0.49,-0.06,7.26,-19,13,33,1,
0.01,-0.03,1.01,-0.06,-0.06,4.64,-18,11,31,1,
0.01,-0.03,1.01,0.43,0.12,6.9,-18,13,30,1,
0.01,-0.03,1.01,0.79,0.06,8.48,-17,12,29,1,
0.01,-0.04,1.01,0.43,-0.06,12.27,-18,12,33,1,
0.01,-0.04,1.01,0.61,0.06,11.29,-17,12,30,1,
0.01,-0.04,1.01,2.01,0.73,15.87,-19,15,26,1,
0.01,-0.04,1.01,0.49,-0.06,12.21,-17,15,34,1,
0.01,-0.04,1.01,1.28,1.04,11.17,-19,16,33,1,
0.02,-0.04,1.01,0.98,0.43,12.7,-19,19,36,1,
0.02,-0.04,1.01,0.12,-0.06,8.54,-19,19,30,1,
0.02,-0.04,1.01,0.24,0.18,8.36,-19,18,30,1,
0.02,-0.04,1.01,0.43,0.06,10.99,-18,17,32,1,
0.02,-0.04,1.01,0.92,0.12,12.88,-18,17,27,1,
0.02,-0.05,1.01,0.18,-0.18,12.63,-18,19,32,1,
0.02,-0.05,1.01,0,-0.12,11.29,-18,20,33,1,
0.02,-0.05,1.01,0.43,0.06,10.44,-19,22,32,1,
0.02,-0.05,1.01,0.06,-0.12,11.72,-18,21,34,1,
0.02,-0.05,1.01,0.49,0.24,6.77,-21,23,31,1,
0.02,-0.05,1.01,0.24,0.12,9.52,-19,21,36,1,
0.02,-0.05,1.01,0,0.06,6.9,-21,23,29,1,
0.02,-0.05,1.01,0.12,0-Jan,5.68,-19,24,33,1,
0.03,-0.05,1.01,0.06,0,13.31,-22,25,30,1,
0.02,-0.05,1.01,0.61,0.06,15.69,-19,22,31,1,
0.02,-0.04,1.01,0.31,0,15.14,-22,25,33,1,
0.02,-0.04,1.01,0.43,-0.12,12.7,-19,26,29,1,
0.02,-0.04,1.01,-0.31,-0.06,12.94,-22,26,36,1,
0.03,-0.05,1.01,0,-0.12,9.34,-22,29,29,1,
0.03,-0.04,1.01,0,0.12,9.16,-22,27,32,1,
0.03,-0.05,1.01,0.31,0.37,7.93,-22,28,27,1,
0.03,-0.05,1.01,0,-0.37,15.38,-23,31,31,1,
0.03,-0.05,1.01,-0.37,-0.06,9.4,-25,31,33,1,
0.03,-0.05,1.01,0.31,-0.06,10.8,-22,30,35,1,
0.03,-0.04,1.01,0.18,0,9.16,-23,32,36,1,
0.03,-0.04,1.01,0.06,0.12,8.67,-26,33,27,1,
0.03,-0.04,1.01,-0.12,-0.24,12.45,-26,30,30,1,
0.03,-0.04,1.01,0.61,0,15.26,-26,31,34,1,
0.03,-0.05,1.01,0.12,-0.12,7.08,-25,32,31,1,
0.03,-0.04,1.01,0,0.06,8.61,-27,33,30,1,
0.03,-0.04,1.01,-0.06,0,10.07,-27,34,31,1,
0.03,-0.04,1.01,-0.12,0.06,8.42,-26,32,34,1,
0.03,-0.04,1.01,0.06,0.12,6.96,-28,32,29,1,
0.03,-0.04,1.01,-0.37,0,4.52,-29,35,30,1,
0.03,-0.04,1.01,0.24,0.06,3.66,-26,34,32,1,
0.03,-0.04,1.01,0.12,0,3.54,-26,34,30,1,
0.03,-0.04,1.01,0,0.06,4.46,-29,34,36,1,
0.03,-0.04,1.01,0.12,0.24,4.58,-26,32,31,1,
0.03,-0.04,1.01,-0.12,0.06,10.38,-29,36,36,1,
0.03,-0.04,1.01,0.12,0.24,5.25,-29,34,32,1,
0.03,-0.04,1.01,0.12,0.18,3.42,-28,34,31,1,
0.03,-0.04,1.01,-0.18,0.18,4.15,-29,36,29,1,
0.03,-0.04,1.01,0.06,-0.06,6.41,-29,35,30,1,
0.03,-0.03,1.01,0.12,0.06,7.14,-31,36,31,1,
0.03,-0.03,1.01,0.06,0.18,6.59,-29,34,35,1,
0.03,-0.04,1.01,0.37,-0.12,9.22,-31,34,38,1,
0.03,-0.04,1.01,0.12,-0.06,8.54,-32,36,30,1,
0.03,-0.04,1.01,0.61,0,14.77,-31,36,31,1,
0.03,-0.03,1.01,0.61,-0.06,12.63,-32,34,30,1,
0.03,-0.04,1.01,0,0.06,4.27,-35,37,28,1,
0.03,-0.03,1.01,0.18,0.12,5.98,-34,38,31,1,
0.03,-0.04,1.01,0.37,0,2.99,-36,36,34,1,
0.03,-0.04,1.01,0.31,-0.18,6.96,-31,35,33,1,
0.03,-0.04,1.01,0.55,0.06,9.4,-34,35,30,1,
0.04,-0.04,1.01,0.31,0.24,6.47,-34,35,34,1,
0.03,-0.04,1.01,0.24,0.06,3.36,-34,39,30,1,
0.04,-0.04,1.01,-0.06,-0.12,3.23,-37,34,33,1,
0.04,-0.04,1.01,0.18,0,6.04,-36,36,31,1,
0.03,-0.04,1.01,0.06,0,5.74,-35,38,27,1,
0.04,-0.04,1.01,0.18,0.06,4.03,-37,37,33,1,
0.04,-0.04,1.01,-0.18,-0.06,2.99,-36,37,33,1,
0.03,-0.04,1.01,-0.55,-0.12,0.43,-36,36,36,1,
0.04,-0.04,1.01,0.06,0,1.89,-38,37,32,1,
0.04,-0.05,1.01,0.31,0,7.14,-36,35,39,1,
0.03,-0.04,1.01,0,0.18,0.55,-36,38,32,1,
0.04,-0.04,1.01,-0.12,-0.31,2.38,-35,38,36,1,
0.04,-0.04,1.01,-0.18,-0.06,0.24,-36,36,30,1,
0.03,-0.03,1.01,1.1,0,-0.31,-37,37,33,1,
0.04,-0.04,1.01,-3.23,-0.85,0.06,-37,38,30,1,
0.04,-0.04,1.01,0.79,0.67,-0.37,-36,37,36,1,
0.04,-0.04,1,-15.01,-7.39,-0.67,-38,37,27,1,
0.02,-0.01,1.01,-2.38,-0.67,-0.31,-34,38,34,1,
0.02,-0.01,1.01,-0.24,-0.61,-0.24,-36,39,32,1,
0.02,-0.02,1.01,0.18,0.06,-0.43,-34,35,34,1,
0.02,-0.02,1.01,-0.06,0,0,-37,39,33,1,
0.02,-0.02,1.01,0.24,0.31,-0.31,-34,37,33,1,
0.01,-0.02,1.01,0.55,-0.12,1.22,-38,40,32,1,
0.02,-0.02,1.01,0.24,0.24,-0.18,-35,38,31,1,
0.02,-0.02,1.01,-0.37,0,-0.31,-35,39,35,1,
0.02,-0.02,1.01,0.98,0.67,0,-36,38,34,1,
0.01,-0.02,1.01,-0.12,0.06,0.06,-35,38,28,1,
0.01,-0.02,1.01,0.12,-0.06,-1.59,-34,39,35,1,
0.02,0.01,1.01,0,-0.43,18.37,-36,37,31,1,
0.01,-0.02,1.01,-0.06,0.31,0,-38,35,36,1,
0.01,-0.02,1.01,-0.43,0.12,0.24,-37,38,34,1,
0.02,-0.02,1.01,-0.24,0.06,0.18,-36,39,33,1,
0.02,-0.01,1.01,0.37,0.12,5,-36,36,35,1,
0.01,-0.02,1.01,0.37,0.31,-0.18,-38,41,38,1,
0.02,-0.03,1.01,3.36,1.89,-0.61,-38,40,33,1,
0.02,-0.03,1.02,0.61,-0.37,0.31,-38,38,33,1,
0.02,-0.03,1.01,-4.64,-2.93,0,-38,38,34,1,
0.02,-0.02,1.01,-1.28,-0.49,-0.37,-37,40,36,1,
0.02,-0.02,1.01,-0.79,-0.37,-0.67,-37,38,34,1,
0.01,-0.02,1.01,0.06,-0.06,-0.18,-36,40,31,1,
0.02,-0.02,1.01,-0.18,0.06,1.53,-39,37,31,1,
0.01,-0.02,1.01,-0.24,-0.06,-0.43,-36,37,33,1,
0.02,-0.02,1.01,-0.31,-0.18,-0.61,-38,38,32,1,
0.01,-0.02,1.01,0.24,0.24,-0.06,-38,39,28,1,
0.02,-0.02,1.01,-0.12,0,-0.37,-38,38,31,1,
0.01,-0.02,1.01,0.67,0.24,-0.85,-37,40,31,1,
0.01,-0.02,1.01,0.31,0.06,-0.06,-37,38,31,1,
0.02,-0.02,1.01,0.37,0.31,0.85,-36,36,32,1,
0.01,-0.02,1.02,-0.61,0.67,1.16,-38,37,32,1,
0.01,-0.02,1.02,-0.92,-1.65,0.18,-38,35,33,1,
0.02,-0.02,1.01,0.55,0.61,-0.85,-37,38,33,1,
0.02,-0.02,1.01,4.7,1.04,-0.49,-36,38,31,1,
0.02,-0.03,1.01,-1.95,0.06,0.24,-39,39,30,1,
0.02,-0.03,1.01,2.38,1.22,0.06,-37,38,36,1,
0.03,-0.04,1.01,7.26,2.93,-1.46,-38,38,33,1,
0.03,-0.06,1.01,5.43,1.04,-1.77,-39,36,34,1,
0.02,-0.03,1.03,-18.62,-8.67,-3.78,-38,35,32,1,
0.02,-0.02,1.02,-0.37,0.55,-0.12,-37,37,30,1,
0.02,0,1.01,-3.48,-0.43,-0.18,-35,37,33,1,
0.02,-0.02,1.02,4.46,-0.73,-0.06,-35,37,29,1,
0.02,-0.02,1.02,6.53,1.65,-0.61,-37,37,33,1,
0.02,-0.03,1.01,-0.24,0.31,-0.37,-37,39,34,1,
0.01,-0.03,1.02,3.05,1.4,-1.77,-38,37,33,1,
0.03,-0.02,1.01,-3.54,-0.73,-0.24,-36,37,28,1,
0.02,-0.02,1.01,-0.24,0.18,-0.61,-36,39,34,1,
0.05,-0.05,1.01,0.92,-0.73,-8.91,-34,39,34,1,
0.01,-0.02,1.02,1.77,0.85,2.62,-35,36,31,1,
0.03,-0.04,1.01,4.46,0.61,-0.12,-36,39,34,1,
0.03,-0.04,1.01,-5.19,-1.59,1.28,-37,39,30,1,
0.02,-0.01,1.01,-16.3,-4.76,0.79,-37,37,31,1,
0.01,0.01,1.01,-2.2,-1.59,3.3,-36,39,29,1,
0,0,1.02,13.67,3.54,-0.06,-34,38,34,1,
0.02,-0.03,1.02,8.61,3.42,0.12,-39,36,32,1,
0.03,-0.05,1.01,-4.03,-1.04,0.55,-36,36,35,1,
0.01,-0.02,1.01,-17.82,-5.92,0.61,-37,38,33,1,
0.01,-0.01,1.02,-2.14,-0.43,-0.85,-38,36,33,1,
0.01,0,1,-7.08,-4.46,1.28,-37,39,34,1,
0.01,0,1.01,2.01,-0.67,-0.43,-37,38,32,1,
0.01,-0.01,1.01,0,1.22,0.43,-37,38,34,1,
0.02,-0.02,1.02,7.81,5.07,-1.04,-37,39,34,1,
0.02,-0.01,1,-7.08,-2.69,0.06,-38,34,31,1,
0.01,-0.01,1.01,-2.62,-2.69,-0.37,-38,39,35,1,
0.02,-0.02,1,9.58,4.27,0.73,-38,39,30,1,
0.02,-0.04,1.01,-2.62,-0.49,-0.06,-37,37,34,1,
0.02,-0.01,1.02,-9.52,-1.95,0.49,-39,36,32,1,
0.02,-0.01,1.01,17.03,6.47,-1.28,-39,38,31,1,
0.02,-0.04,1.01,4.46,0.55,0.61,-36,38,30,1,
0.02,-0.04,1.01,-12.39,-4.58,-0.98,-41,36,33,1,
0.01,-0.02,1.01,-4.15,-0.49,0.18,-38,38,34,1,
0.01,0,1.01,-9.28,-2.56,0.31,-38,40,35,1,
0,0.01,1.04,-5.37,1.95,-3.36,-35,38,35,1,
0.03,0,1.01,24.6,3.05,-3.85,-35,37,30,1,
0.02,-0.04,1.02,13.37,4.58,-0.12,-35,36,32,1,
0.02,-0.03,1.02,-12.33,-2.69,1.46,-36,40,29,1,
0,0.02,1.01,-11.66,-3.72,0.55,-35,39,32,1,
0.01,-0.01,1.01,23.19,7.75,1.95,-37,39,30,1,
0.03,-0.04,1.02,6.84,3.36,3.54,-37,36,30,1,
0.02,-0.05,1.01,-6.71,-1.04,1.95,-39,37,32,1,
0.02,-0.01,1.02,-15.62,-3.97,-1.4,-38,39,30,1,
0.01,0,1.01,9.52,1.89,-3.91,-36,37,33,1,
0.02,-0.04,1.02,22.95,4.52,-4.09,-38,38,32,1,
0.03,-0.07,1.01,6.53,3.6,0.98,-38,39,33,1,
0.03,-0.07,1.01,-5.62,-0.67,1.22,-39,38,31,1,
0.04,-0.05,1,-8.36,0.85,-0.31,-39,36,29,1,
0.03,-0.02,1.01,-20.14,-4.33,-0.73,-38,39,36,1,
-0.01,0,3       1.0,5       13.85,-5.8,0.55,-37,38,33,1,
0.01,-0.01,1.02,-4.58,1.28,-0.37,-39,37,29,1,
0.01,0,1,-3.48,0.18,-0.43,-36,40,36,1,
-0.01,0.01,0.99,20.2,-3.05,1.1,-35,38,29,1,
0.02,-0.03,1.01,8.36,2.75,0.79,-40,39,32,1,
0.02,0,1.02,4.7,3.91,-3.17,-36,40,31,1,
0.03,-0.05,1.02,12.51,4.46,-0.37,-37,37,36,1,
0.04,-0.06,1.01,0.24,0.43,3.97,-40,36,30,1,
0.03,-0.05,1,-11.41,-3.97,9.28,-38,38,35,1,
0.03,-0.04,1.01,-12.82,-3.11,0.37,-42,37,34,1,
0.02,-0.01,1.01,-8.73,-3.91,-1.04,-37,36,31,1,
0.02,-0.02,1.02,9.03,2.08,-0.92,-37,40,31,1,
0.02,-0.03,1.01,8.85,2.01,0.06,-38,39,34,1,
0.03,-0.05,1.01,0.31,0.92,-1.53,-39,35,34,1,
0.02,-0.02,1,-17.33,-5.13,-1.59,-36,36,33,1,
0.03,-0.02,1.02,7.2,-1.34,0.61,-37,38,27,1,
0.02,-0.02,1.01,-0.92,-1.22,-0.18,-37,39,34,1,
0.02,-0.02,1.01,0.06,-0.43,0.55,-36,39,32,1,
0.01,-0.01,1.01,5.92,2.75,-0.49,-38,38,30,1,
0.01,-0.02,1.01,-5.07,-1.65,0.31,-38,39,32,1,
0.01,-0.02,1.01,2.5,0.12,0.24,-36,38,32,1,
0.01,-0.02,1.01,2.5,1.46,-0.49,-38,36,33,1,
0.02,-0.03,1.01,-6.9,0,0.37,-36,37,35,1,
0.01,-0.02,1.02,6.29,0.61,1.34,-38,40,33,1,
0.02,-0.02,1.01,2.14,1.16,-0.49,-36,39,38,1,
0.02,-0.04,1.01,-6.16,-2.5,0.43,-39,38,33,1,
0.01,-0.01,1.01,1.95,0.31,0.31,-39,40,30,1,
0.01,-0.02,1.01,0.37,0.43,0.12,-39,41,31,1,
0.02,-0.03,1.01,2.99,1.4,-0.85,-38,38,29,1,
0.02,-0.04,1.01,8.18,1.71,-0.37,-38,36,30,1,
0.02,-0.05,1.01,3.48,1.77,0.12,-38,38,32,1,
0.03,-0.05,1.01,-17.46,-3.72,-0.31,-40,38,32,1,
0.02,-0.03,1.02,-1.83,-1.34,-3.6,-38,38,29,1,
0.01,-0.02,1.01,-1.59,-0.24,-0.61,-37,39,34,1,
0.02,-0.02,1.01,9.7,6.04,-0.24,-36,38,31,1,
0.02,-0.04,1.01,7.39,3.11,1.28,-37,38,36,1,
0.02,-0.05,1.02,7.69,2.75,8,-36,37,32,1,
0.04,-0.07,1.01,8.36,3.42,-0.98,-39,36,31,1,
0.04,-0.09,1.01,5.13,2.32,-0.79,-41,36,34,1,
0.04,-0.09,1.01,0.55,0.06,0.24,-39,38,32,1,
0.04,-0.09,1.01,2.87,0.37,0.43,-40,34,26,1,
0.04,-0.1,1,-0.06,-0.37,0.61,-41,38,32,1,
0.05,-0.11,1,1.59,0.06,0.43,-42,39,36,1,
0.05,-0.11,1.01,0.06,0.37,-0.24,-42,37,35,1,
0.05,-0.11,1.01,-2.44,-0.18,-0.37,-42,37,33,1,
0.05,-0.11,1.01,0.92,0.43,-0.12,-43,37,31,1,
0.04,-0.12,1.01,-0.67,-0.55,1.53,-40,38,31,1,
0.05,-0.1,1.01,-0.79,0.73,-0.73,-40,40,36,1,
0.04,-0.1,1.01,0.73,0.67,-0.61,-43,38,36,1,
0.04,-0.1,1.01,0,0.06,-0.24,-39,38,35,1,
0.04,-0.1,1.01,-0.98,-0.18,-0.55,-41,34,32,1,
0.04,-0.09,1.01,-2.14,-0.67,-0.12,-39,39,34,1,
0.04,-0.09,1,-2.99,-0.92,-0.37,-41,37,32,1,
0.04,-0.09,1.01,-3.6,-0.85,-0.55,-39,37,31,1,
0.04,-0.08,1.01,-0.12,0.06,-0.61,-40,38,26,1,
0.04,-0.07,1.01,-2.2,-0.55,-1.04,-39,38,31,1,
0.03,-0.06,1.01,-4.88,-2.2,-2.5,-38,38,35,1,
0.03,-0.05,1.01,-1.77,-0.79,0.73,-42,38,31,1,
0.02,-0.04,1.01,-0.24,-0.31,0.18,-40,39,31,1,
0.02,-0.03,1.01,-6.1,-2.75,-0.61,-38,35,32,1,
0.01,-0.02,1.01,0.06,0.24,-0.06,-41,40,36,1,
0.01,-0.02,1.01,-2.2,-0.24,-0.37,-38,38,29,1,
0.01,-0.02,1.01,0.49,0,-0.31,-37,39,38,1,
0.01,-0.02,1.01,-0.24,-0.24,-0.61,-36,38,33,1,
0.01,-0.02,1.01,0.61,-0.12,-1.59,-36,36,31,1,
0.01,-0.02,1.01,0,0.12,-0.31,-38,38,30,1,
0.01,-0.02,1.01,-0.24,-0.06,-0.12,-39,38,33,1,
0.01,-0.01,1.01,-2.69,-0.43,1.1,-37,38,30,1,
0.01,-0.01,1.01,-1.46,-0.55,1.1,-39,38,35,1,
0,-0.01,1.01,-1.65,-0.92,-0.55,-38,38,33,1,
0,0,1.01,-4.15,-4.94,-1.89,-39,38,28,1,
-0.01,0.01,1.01,0.43,-3.91,-2.44,-36,40,31,1,
-0.01,0.01,1.01,2.56,-1.22,-0.18,-38,39,31,1,
-0.02,0,1.03,-5.07,-8,-0.31,-38,40,30,1,
-0.04,0.01,1.01,-0.24,-6.84,0.12,-36,39,32,1,
-0.05,0.02,1,-5.25,-8.12,0.37,-36,44,31,1,
-0.06,0.02,1,-1.22,-4.21,0.18,-39,41,31,1,
-0.06,0.02,1.01,-1.4,-2.14,-0.37,-37,40,31,1,
-0.06,0.02,1.02,-1.04,-1.1,0.24,-36,42,34,1,
-0.07,0.02,1,-0.67,-1.77,-0.06,-35,42,31,1,
-0.07,0.02,1,-1.65,-2.93,0.18,-36,43,33,1,
-0.08,0.03,1,0.43,-1.4,-0.61,-36,42,28,1,
-0.08,0.02,1.01,-0.24,-1.71,0,-37,42,30,1,
-0.08,0.02,1,-0.06,-2.2,-0.24,-35,43,34,1,
-0.08,0.02,1.01,0.12,0.85,0.43,-38,40,32,1,
-0.08,0.02,1.01,-0.92,-1.04,-0.43,-37,39,30,1,
-0.08,0.02,1.01,-0.18,0.85,1.28,-37,40,31,1,
-0.08,0.03,1.01,-0.31,-1.71,0.79,-35,39,31,1,
-0.09,0.03,1.01,-0.79,-1.04,-0.92,-36,43,34,1,
-0.09,0.03,1.01,0.92,1.04,0.31,-36,42,30,1,
-0.09,0.03,1.01,-0.98,-1.46,0.49,-37,43,32,1,
-0.09,0.03,1,-0.37,-1.28,0.43,-38,41,31,1,
-0.09,0.03,1.01,0.92,2.44,-0.31,-38,44,33,1,
-0.09,0.03,1.01,0.85,0.98,0.31,-38,43,27,1,
-0.09,0.03,1,-0.61,-1.4,-0.24,-37,41,33,1,
-0.09,0.03,1,0.43,-0.24,0.31,-36,44,30,1,
-0.09,0.03,1.01,-0.12,1.28,-0.18,-38,43,31,1,
-0.09,0.03,1.01,-0.18,-1.46,0.79,-37,43,29,1,
-0.09,0.02,1,-0.55,-0.98,-0.98,-38,46,28,1,
-0.09,0.03,1.01,1.04,1.34,-0.18,-38,42,29,1,
-0.09,0.02,1,2.08,0.18,0.31,-38,42,29,1,
-0.07,0.01,1.02,10.56,15.38,-2.26,-38,41,31,1,
-0.05,0.01,1.01,4.39,8.24,-1.59,-36,41,30,1,
-0.05,0.01,1.01,0.24,0.79,0.61,-35,40,28,1,
-0.04,0.01,1,0.67,6.65,0.24,-37,39,30,1,
-0.04,0.01,1,2.38,3.54,1.16,-37,39,29,1,
-0.03,0,0       1.0,0       1.65,1.28,-0.18,-37,41,23,1,
-0.01,0,1       1.0,2       7.87,8.18,0.43,-38,40,27,1,
0.01,-0.03,1.01,1.04,3.05,-1.71,-36,41,34,1,
0.01,-0.03,1.01,-0.24,0.73,-2.2,-37,36,32,1,
0.01,-0.03,1.01,2.38,3.3,0.24,-38,37,31,1,
0.02,-0.03,1.02,0.85,4.21,0.43,-39,38,36,1,
0.02,-0.04,1.03,3.78,6.65,0.37,-39,38,31,1,
0.04,-0.05,1.01,2.26,1.28,-1.28,-38,38,37,1,
0.04,-0.05,1.01,-0.06,2.38,2.14,-40,36,36,1,
0.05,-0.05,1.01,-0.92,5.49,1.04,-39,38,34,1,
0.05,-0.05,1.02,-2.81,4.58,2.69,-41,36,30,1,
0.06,-0.05,1.01,0.98,1.28,0.49,-41,37,35,1,
0.07,-0.04,1,0.49,3.6,-0.37,-40,35,40,1,
0.09,-0.04,1.01,-2.44,4.94,0.06,-39,37,33,1,
0.09,-0.04,1.01,1.04,3.23,-0.43,-39,36,29,1,
0.09,-0.04,1.01,0.85,3.72,-0.85,-40,37,34,1,
0.09,-0.04,1.01,4.33,0.73,0,-39,36,33,1,
0.1,-0.05,1.01,2.38,0.98,-0.49,-40,37,34,1,
0.11,-0.05,1,-1.89,2.99,0.55,-40,35,31,1,
0.11,-0.04,1,0.79,2.62,-0.18,-41,35,34,1,
0.12,-0.05,1,-2.75,3.17,0.79,-39,34,34,1,
0.12,-0.04,1.01,-1.65,0.31,-0.67,-41,34,33,1,
0.12,-0.04,1.01,-2.2,2.44,0.18,-40,33,34,1,
0.12,-0.04,1.01,-1.65,2.87,0.18,-37,35,37,1,
0.13,-0.03,1,-0.73,1.77,0.06,-39,37,29,1,
0.13,-0.02,1,-2.01,0.18,-0.12,-39,34,33,1,
0.13,-0.03,1.01,-0.31,0.61,0.49,-39,33,34,1,
0.13,-0.03,1,0.31,1.16,-0.55,-37,34,36,1,
0.14,-0.03,1.01,2.14,-0.31,-0.06,-39,37,37,1,
0.14,-0.03,1.01,3.36,6.77,0.67,-40,34,34,1,
0.14,-0.04,1.01,-0.73,-0.12,0.24,-41,32,37,1,
0.15,-0.03,1,0.73,0.43,0,-37,33,35,1,
0.15,-0.04,1,2.26,2.38,-0.43,-40,34,34,1,
0.15,-0.04,1,-1.89,-0.24,0.24,-39,32,36,1,
0.15,-0.04,1,-0.85,1.46,0.37,-39,35,38,1,
0.15,-0.04,1.01,0.12,0.43,-1.22,-39,33,35,1,
0.15,-0.04,1.01,-0.55,1.1,-0.31,-38,32,36,1,
0.16,-0.04,1,-0.31,2.75,-0.43,-41,33,36,1,
0.16,-0.04,1,1.59,1-Jan,0,-39,32,33,1,
0.16,-0.04,1,1.71,-0.06,-0.61,-40,33,32,1,
0.17,-0.04,1,0.43,0.98,-0.67,-41,34,33,1,
0.17,-0.04,1,-0.92,0-Jan,-0.12,-37,33,35,1,
0.17,-0.04,1,0.24,1.4,-0.43,-39,31,34,1,
0.17,-0.04,1,0.67,0.18,0.06,-40,30,37,1,
0.17,-0.04,0.99,0.06,0.67,-0.18,-39,32,34,1,
0.17,-0.04,1,-0.24,-0.24,-0.31,-37,32,31,1,
0.17,-0.04,1,-0.37,-0.49,-0.18,-39,32,33,1,
0.17,-0.04,1,0.12,0.37,0.06,-38,32,36,1,
0.17,-0.04,1,-0.61,0.06,-0.24,-39,31,33,1,
0.18,-0.04,1,0.43,1.53,-0.18,-36,34,38,1,
0.18,-0.04,1,1.65,0.92,-0.73,-41,30,29,1,
0.17,-0.05,1,0.61,-1.22,0,-39,31,33,1,
0.17,-0.05,1,0.79,-6.41,-0.67,-39,33,40,1,
0.15,-0.05,1,-3.42,-7.87,-0.24,-40,35,35,1,
0.13,-0.04,1.01,2.69,-7.2,-0.12,-39,35,37,1,
0.12,-0.05,0.99,0.18,-6.35,0.61,-37,34,35,1,
0.1,-0.04,1.01,-1.04,-6.23,0.67,-39,35,35,1,
0.08,-0.04,1.01,-0.31,-8.42,0.79,-40,35,30,1,
0.06,-0.03,1.02,-6.96,-13,1.4,-39,38,40,1,
0.05,-0.03,1.01,-2.44,-6.71,0.92,-38,36,34,1,
0.03,-0.02,1.01,-3.6,-7.02,0.61,-39,38,34,1,
0.03,-0.02,1.01,-3.05,-1.71,0.06,-36,38,38,1,
0.02,-0.01,1.01,-0.55,-1.04,-0.31,-39,40,33,1,
0.02,-0.01,1.01,-0.24,-0.67,-0.31,-39,40,37,1,
0.02,-0.01,1.01,-0.18,-0.55,-0.31,-39,39,33,1,
0.01,-0.01,1.01,0.12,-0.24,-0.24,-39,38,32,1,
0.01,-0.02,1.01,0.12,0.06,-0.18,-39,39,29,1,
0.01,-0.01,1.01,-0.12,-0.61,0.55,-38,39,32,1,
0.01,-0.01,1.01,0.37,0.06,-0.43,-38,37,33,1,
0.01,-0.02,1.01,2.26,0.31,-1.53,-35,37,28,1,
0.01,-0.02,1.01,0.31,-0.06,-1.28,-39,39,31,1,
0.01,-0.02,1.01,0.61,-0.12,-0.79,-38,38,32,1,
0.01,-0.02,1.01,-0.61,-0.55,2.69,-38,38,34,1,
0.01,-0.01,1.01,-1.4,-0.67,-0.12,-41,38,33,1,
0.01,-0.01,1.02,-3.17,0.49,-0.06,-38,39,38,1,
0.01,0.01,1,-7.75,-1.71,-1.83,-40,41,30,1,
0,0.02,1.01,-2.81,0.12,-0.37,-37,37,34,1,
0,0.03,1.01,-5.19,-0.61,-0.24,-38,39,31,1,
0,0.03,1.01,-5,-0.85,-0.43,-36,41,36,1,
0,0.03,1.02,0.06,0.31,-0.06,-35,41,31,1,
0,0.03,1.01,0.73,0.49,-0.06,-37,40,29,1,
0,0.03,1,1.04,0.18,-0.06,-39,39,37,1,
0,0.03,1.02,0.92,0-Jan,-0.18,-36,40,31,1,
0,0.03,1.01,2.26,0.12,-0.24,-35,38,31,1,
0,0.02,1.01,0.12,0.55,0,-36,40,25,1,
0,0.02,1.01,0.61,0,-0.12,-36,41,32,1,
0,0.02,1.01,-0.12,0.12,-0.06,-37,38,28,1,
0,0.02,1.01,-0.61,0.24,0,-39,38,34,1,
0,0.02,1.02,-1.4,0.55,0.37,-39,38,33,1,
0,0.02,1.01,0.92,0.55,-0.24,-36,38,31,1,
0,0.02,1.01,-0.18,0.49,0.06,-39,41,32,1,
0,0.02,1.01,1.22,0.37,-0.06,-38,42,27,1,
0,0.02,1.01,1.22,0.06,-0.18,-38,38,33,1,
0,0.01,1.01,1.53,0.18,-0.31,-36,37,33,1,
0,0.01,1.01,0.55,0.12,-0.18,-36,38,31,1,
0,0.01,1.01,-1.04,-0.12,-0.18,-39,39,31,1,
0,0.01,1.01,1.53,0.31,-0.12,-37,36,31,1,
0,0.01,1.01,1.1,0.31,-0.06,-38,38,30,1,
0,0.01,1.01,0.55,0.12,-0.06,-35,39,35,1,
0,0,1.01,2.44,0.43,-0.12,-35,37,29,1,
0,0,1.01,1.53,0.24,0,-39,40,29,1,
0,-0.01,1.01,2.75,0.67,0,-37,39,33,1,
0,-0.01,1.01,1.22,0.61,-0.12,-35,37,35,1,
0,-0.01,1.01,-0.92,-0.06,-0.12,-37,38,36,1,
0,-0.01,1.01,1.46,0.24,0,-35,39,33,1,
0,-0.01,1.01,0.37,0.43,-0.06,-40,42,33,1,
0.01,-0.01,1.01,0.18,0.18,-0.12,-36,39,30,1,
0,-0.01,1.01,0.24,0.24,-0.12,-37,39,29,1,
0.01,-0.01,1.01,0.06,0.24,-0.12,-39,39,30,1,
0.01,-0.01,1.01,-0.12,-0.12,-0.06,-39,38,32,1,
0,-0.01,1.01,-0.06,0,-0.18,-39,40,29,1,
0,-0.01,1.01,0.06,0.24,-0.12,-38,39,30,1,
0.01,-0.01,1.01,0.18,0.18,-0.06,-38,39,29,1,
0.01,-0.01,1.01,0,0.06,0,-39,41,34,1,
0.01,-0.01,1.01,-0.31,-0.18,-0.06,-38,38,32,1,
0,-0.01,1.01,-0.18,0,-0.12,-39,39,28,1,
0.01,-0.01,1.01,-0.12,-0.12,-0.18,-38,38,33,1,
0,-0.01,1.01,0.37,0.67,0.43,-39,38,34,1,
0.01,-0.01,1.01,1.1,0.61,-0.12,-39,38,35,1,
0.01,-0.01,1.01,-0.37,-0.24,-0.18,-38,40,34,1,
0.01,-0.01,1.01,-0.12,0,-0.18,-38,40,29,1,
0,-0.01,1.01,0.37,0.43,0.24,-39,38,36,1,
0.01,-0.01,1.01,0.06,0.24,-0.12,-37,39,35,1,
0.01,-0.01,1.01,0.12,0.24,-0.06,-39,40,29,1,
0.01,-0.01,1.01,0.12,0.31,-0.12,-39,36,31,1,
0.01,-0.01,1.01,0.55,0.24,-0.06,-39,41,32,1,
0.01,-0.01,1.01,-0.12,0,0.73,-38,38,31,1,
0.01,-0.01,1.01,1.77,0.31,-0.24,-39,40,36,1,
0.01,-0.02,1.01,-0.06,0.12,-0.06,-39,39,30,1,
0.01,-0.02,1.01,0.92,0.06,-0.12,-39,39,37,1,
0.01,-0.02,1.01,0.06,0.06,-0.12,-38,41,33,1,
0.01,-0.02,1.01,0.37,0.18,-0.18,-38,38,32,1,
0.01,-0.02,1.01,0.49,0.24,-0.18,-39,37,33,1,
0.01,-0.02,1.01,0.43,0.31,-0.24,-37,38,35,1,
0.01,-0.02,1.01,2.32,0.55,0.12,-39,41,32,1,
0.01,-0.03,1.01,1.22,0.55,-0.18,-38,40,29,1,
0.01,-0.04,1.01,6.77,3.42,-0.61,-39,39,32,1,
0.02,-0.04,1.02,6.84,2.93,-0.49,-40,38,31,1,
0.03,-0.06,1.01,2.01,1.16,-0.67,-39,37,32,1,
0.03,-0.06,1.01,1.28,0.85,-0.73,-40,38,40,1,
0.03,-0.07,1.01,2.99,1.28,-0.67,-40,38,33,1,
0.03,-0.08,1.01,3.72,1.46,-0.73,-41,38,29,1,
0.04,-0.09,1.01,4.09,1.71,-0.92,-41,38,35,1,
0.04,-0.09,1.01,-2.62,-0.67,0,-43,34,33,1,
0.04,-0.07,1.01,-17.4,-4.15,1.4,-40,38,36,1,
0.03,-0.05,1.01,-1.53,-0.49,-0.18,-40,37,36,1,
0.03,-0.04,1.04,0.67,2.38,-5.07,-41,38,35,1,
0.04,-0.07,1.05,26.18,21.55,-8.48,-41,38,34,1,
0.09,-0.13,1.15,75.68,56.76,-45.84,-43,35,34,1,
0.01,-0.04,1.01,1.71,0,2.14,-34,38,30,1,
0.01,-0.04,1.01,-1.89,-0.43,-0.37,-34,36,31,1,
0.01,-0.04,1.01,-0.06,0,9.28,-32,38,36,1,
0.01,-0.03,1.01,-1.04,-0.43,17.09,-33,37,35,1,
-0.01,0,3       1.0,1       0.49,-0.18,53.16,-35,40,31,1,
0.02,-0.02,1.01,0.55,-0.73,24.54,-39,38,29,1,
0.01,-0.03,1.01,0.18,2.38,-1.1,-38,40,36,1,
0.01,-0.03,1.01,0.37,0.67,0.31,-40,39,34,1,
0.01,-0.03,1.01,-0.12,0,-0.31,-37,38,35,1,
0.01,-0.03,1.01,-0.31,-0.18,-0.37,-41,39,35,1,
0.02,-0.03,1,-0.37,2.38,-0.79,-39,39,35,1,
0,-0.02,1.01,0.06,-0.18,14.59,-40,41,33,1,
0.01,-0.03,1.01,-0.12,0.06,6.41,-40,39,33,1,
0.01,-0.03,1.01,-0.24,0.12,21.73,-41,38,32,1,
0,-0.02,1.01,0.18,-0.31,1.1,-38,39,27,1,
0,0,2       1.0,1       -0.18,0.12,-6.59,-39,38,33,1,
0.03,-0.04,1.01,0.18,0.18,-5.49,-38,41,32,1,
0.02,-0.03,1.01,-0.12,0,-0.18,-37,40,35,1,
0.01,-0.03,1.01,-0.37,-0.18,-0.31,-38,40,33,1,
0.01,-0.03,1.01,-0.12,0,-0.37,-38,40,33,1,
0.01,-0.03,1.01,-0.79,-0.37,-0.37,-38,41,33,1,
0.01,-0.03,1.01,-0.37,0,0.06,-38,38,31,1,
0.01,-0.03,1.01,0.49,-0.43,-0.49,-38,36,31,1,
0.01,-0.02,1.01,-0.12,0.12,-0.12,-38,38,28,1,
0.01,-0.03,1.01,-0.06,0,-0.18,-36,39,29,1,
0.01,-0.03,1.01,0,0,-0.18,-36,38,33,1,
0.01,-0.03,1.01,-0.06,0.06,-0.18,-38,40,32,1,
0.01,-0.02,1.01,0,0.06,-0.24,-38,39,31,1,
0.01,-0.03,1.01,0.12,0.06,-0.12,-38,40,29,1,
0.01,-0.03,1.01,-0.06,0.06,-0.18,-38,39,30,1,
0.01,-0.03,1.01,0,0.06,-0.12,-38,39,34,1,
0.01,-0.03,1.01,-0.06,0.12,-0.12,-37,38,36,1,
0.01,-0.03,1.01,0,0,-0.12,-39,39,35,1,
0.01,-0.03,1.01,0,0,-0.12,-39,39,27,1,
0.01,-0.03,1.01,-0.06,0,-0.12,-39,38,29,1,
0.01,-0.03,1.01,0,0.06,-0.12,-39,39,31,1,
0.01,-0.03,1.01,0,0.06,-0.12,-38,40,30,1,
0.01,-0.03,1.01,0,0.06,-0.12,-39,39,33,1,
0.01,-0.03,1.01,-0.06,0.06,-0.12,-37,39,35,1,
0.01,-0.03,1.01,-0.06,0.06,-0.12,-38,40,29,1,
0.01,-0.03,1.01,0,0,-0.12,-39,39,35,1,
0.01,-0.03,1.01,0,0.06,-0.18,-37,38,28,1,
0.01,-0.03,1.01,-0.12,0.12,-0.06,-37,39,34,1,
0.01,-0.03,1.01,-0.06,0.06,-0.12,-38,40,29,1,
0.01,-0.03,1.01,0,0,-0.18,-36,38,28,1,
0.01,-0.03,1.01,-0.06,0.06,-0.12,-37,36,33,1,
0.01,-0.03,1.01,0.06,0.06,-0.06,-38,41,35,1,
0.01,-0.03,1.01,0.06,0.06,-0.12,-38,40,34,1,
0.01,-0.03,1.01,-0.12,0.18,-0.31,-39,37,33,1,
0.01,-0.03,1.01,-0.06,0.06,-0.37,-39,39,28,1,
0.01,-0.03,1.01,-0.06,0.06,-0.18,-37,39,38,1,
0.01,-0.03,1.01,-0.12,0.06,-0.24,-38,41,35,1,
0.01,-0.03,1.01,0.06,0.06,-0.18,-39,38,35,1,
0.01,-0.03,1.01,-0.06,0.18,-0.24,-38,39,34,1,
0.01,-0.03,1.01,-0.06,0,-0.06,-39,37,31,1,
0.01,-0.03,1.01,0,0.12,-0.24,-38,39,31,1,
0.01,-0.03,1.01,0.06,0.12,-0.24,-39,38,33,1,
0.01,-0.03,1.01,-0.06,0.18,-0.12,-38,40,35,1,
0.01,-0.03,1.01,0,0.12,-0.31,-39,39,34,1,
0.01,-0.03,1.01,-0.06,0.06,-0.18,-38,36,29,1,
0.01,-0.03,1.01,-0.06,0.12,-0.12,-37,39,35,1,
0.01,-0.03,1.01,-0.06,0.06,-0.12,-38,39,32,1,
0.01,-0.03,1.01,0,0.12,-0.12,-36,39,29,1,
0.01,-0.03,1.01,0,0.06,-0.24,-37,41,35,1,
0.01,-0.03,1.01,-0.12,0.12,-0.18,-37,41,30,1,
0.01,-0.03,1.01,-0.06,0.06,-0.12,-39,38,32,1,
0.01,-0.03,1.01,0.06,0.12,-0.18,-38,38,33,1,
0.01,-0.03,1.01,0,0,-0.12,-37,41,35,1,
0.01,-0.02,1.01,0,0,-0.24,-38,40,36,1,
0.01,-0.03,1.01,0,0.12,-0.12,-36,42,34,1,
0.01,-0.03,1.01,-0.06,0.12,-0.18,-38,36,30,1,
0.01,-0.03,1.01,-0.06,0.12,-0.18,-38,40,27,1,
0.01,-0.03,1.01,-0.06,0.06,-0.31,-38,39,35,1,
0.01,-0.02,1.01,-0.06,0.12,-0.06,-36,40,34,1,
0.01,-0.03,1.01,0,0,-0.18,-37,41,35,1,
0.01,-0.03,1.01,0.12,0.18,-0.12,-38,39,33,1,
0.01,-0.03,1.01,-0.12,0.18,-0.85,-36,39,30,1,
0.01,-0.03,1.01,0,0.06,-0.18,-38,38,34,1,
0.01,-0.03,1.01,0.12,0.06,-0.18,-37,41,33,1,
0.02,-0.06,1.01,-0.06,0.12,-0.24,-36,38,30,1,
0.01,-0.02,1.01,0,0.12,-0.18,-38,37,33,1,
0.01,-0.03,1.01,0,0.06,-0.24,-40,39,37,1,
0.01,-0.03,1.01,0.06,0.06,-0.12,-38,38,30,1,
0,0,3       1.0,1       0.12,0,3.6,-40,37,30,1,
0.01,-0.03,1.01,0.12,0.12,-0.67,-37,39,33,1,
0.01,-0.03,1.01,-0.06,0.18,-0.12,-39,39,31,1,
0,-0.03,1.02,-3.72,0.73,-0.61,-37,36,30,1,
0,-0.01,1.02,-6.23,-1.4,0,-37,39,32,1,
0.01,0,1.02,-0.31,-0.06,-1.53,-37,40,33,1,
0,0.01,1.01,-0.43,0.67,-0.67,-36,38,30,1,
0,0.02,1.02,-7.2,-1.46,-0.61,-37,39,31,1,
0,0.04,1,-5.86,-0.67,-0.12,-38,39,31,1,
0,0.03,1.01,1.1,0.37,-0.43,-36,40,34,1,
0,0.03,1.01,-8.06,0.79,0.18,-37,40,31,1,
0,0.03,1,5,-0.79,-0.31,-38,39,28,1,
0,0,1.01,14.04,2.5,0.43,-36,38,34,1,
0.01,-0.02,1.01,4.76,1.46,0.18,-39,39,35,1,
0.01,-0.02,1.01,0.06,0.06,-0.18,-38,37,30,1,
0.01,-0.02,1.01,0.37,0.18,-0.06,-36,39,30,1,
0.01,-0.02,1.01,0.49,-0.06,0.49,-39,38,34,1,
0.01,-0.02,1.01,0.18,-0.06,-0.18,-38,39,29,1,
0.01,-0.03,1.01,0.18,0.24,-0.49,-35,39,37,1,
0.01,-0.03,1.01,2.93,0.43,-0.18,-38,39,34,1,
0.01,-0.03,1.02,8.3,0.92,0.85,-38,39,32,1,
0.01,-0.05,1.01,-0.18,0.31,2.01,-39,37,30,1,
0.01,-0.04,1.02,1.04,0.06,0,-41,39,31,1,
0.01,-0.05,1.01,-1.59,-0.43,0.24,-39,38,32,1,
0.01,-0.04,1.01,-2.62,-0.61,-0.06,-37,38,27,1,
0.01,-0.05,1.01,1.04,0.12,-0.18,-39,41,34,1,
0.01,-0.05,1.02,5.55,1.59,0.49,-39,39,36,1,
0.01,-0.06,1.01,1.71,0.12,-0.06,-37,39,36,1,
0.01,-0.06,1.01,-0.55,-0.06,-0.31,-41,40,33,1,
0.02,-0.06,1.01,4.64,0.61,-0.55,-39,41,27,1,
0.02,-0.07,1.01,3.48,0.67,-0.12,-39,37,27,1,
0.01,-0.08,1.01,1.71,0.31,-0.24,-40,38,31,1,
0.02,-0.08,1.01,2.32,0.43,-0.06,-40,40,31,1,
0.02,-0.08,1.01,3.36,0.37,-0.12,-41,38,34,1,
0.02,-0.09,1.01,1.53,0.49,0.18,-41,39,34,1,
0.02,-0.09,1.01,3.11,0.24,-0.49,-40,40,30,1,
0.02,-0.1,1.01,7.45,0.24,-0.18,-40,39,34,1,
0.02,-0.11,1.01,2.26,0.49,-0.24,-42,39,33,1,
0.02,-0.11,1,-7.08,-1.22,0.31,-40,39,30,1,
0.01,-0.09,1,-23.99,-1.04,0.79,-39,40,29,1,
0.01,-0.03,1.03,-15.69,-2.38,-1.1,-38,40,34,1,
0.01,-0.03,1.01,-3.05,-0.12,-0.18,-42,41,38,1,
0.01,-0.02,1.01,-1.22,-0.18,-0.18,-36,42,35,1,
0.01,-0.02,1.01,-0.18,0.31,-0.55,-38,40,34,1,
0.01,-0.01,1.01,0.06,0.18,-0.55,-37,39,35,1,
0.01,-0.01,1.01,8.42,0.55,-0.18,-38,41,30,1,
0.01,-0.02,1.01,2.26,0.12,-0.18,-38,40,30,1,
0.01,-0.02,1.01,2.87,0.06,-0.31,-39,41,29,1,
0.01,-0.03,1,-3.48,-2.75,-1.1,-39,39,35,1,
0,-0.01,1.01,-0.18,1.28,0.18,-36,40,32,1,
0.01,-0.02,1.01,0.12,1.59,0.12,-39,40,34,1,
0.01,-0.03,1.01,6.71,0.37,-0.61,-41,38,28,1,
0.01,-0.04,1.01,1.46,1.16,-0.55,-37,39,31,1,
0.01,-0.03,1.01,-7.51,-0.43,0.49,-38,39,33,1,
0.01,-0.02,1.01,-3.3,-0.12,-0.37,-37,40,33,1,
0.01,-0.01,1.03,-3.72,-0.12,-0.43,-38,37,38,1,
0.01,-0.01,1.01,14.95,1.83,0.18,-38,37,29,1,
0.01,-0.03,1.01,3.23,0.12,0,-36,38,34,1,
0.01,-0.02,1.01,-2.2,-0.18,0.12,-37,40,31,1,
0.01,-0.02,1.01,-0.67,0,-0.37,-39,38,33,1,
0.01,-0.03,1.01,-0.73,-0.18,-0.55,-38,41,32,1,
0.01,-0.02,1.01,0.12,0.06,-0.12,-37,41,34,1,
0.01,-0.02,1.01,0,0.06,-0.12,-38,39,27,1,
0.01,-0.02,1.01,0.12,0.06,-0.12,-38,39,33,1,
0.01,-0.03,1.01,0.18,0.12,-0.12,-38,38,33,1,
0.01,-0.02,1.01,0.12,0.06,-0.12,-39,38,33,1,
0.01,-0.03,1.01,0.24,0.12,-0.12,-35,41,30,1,
0.01,-0.03,1.01,0.18,0,-0.18,-37,40,34,1,
0.01,-0.03,1.01,0.31,0.24,-0.49,-39,40,30,1,
0.01,-0.03,1.01,0.37,0.31,-0.18,-38,38,34,1,
0.01,-0.03,1.01,0.43,0.24,-0.18,-37,40,33,1,
0.01,-0.03,1.01,0.92,1.04,-5.8,-39,41,31,1,
0.01,-0.03,1.01,0.18,0.18,-1.04,-39,40,31,1,
0.02,-0.04,1.01,0.31,0.55,-1.1,-37,39,34,1,
0.02,-0.04,1.01,0.73,1.1,-0.61,-38,38,30,1,
0.01,-0.04,1,1.28,-1.4,0,-39,39,33,1,
0.01,-0.04,1.01,-0.18,1.22,-0.85,-38,38,33,1,
0.01,-0.03,1.01,-0.12,0.18,-0.24,-39,39,33,1,
0.01,-0.03,1.01,0.43,0.12,-0.12,-36,38,34,1,
0.01,-0.04,1.01,-0.12,0.06,0.06,-37,41,32,1,
0.01,-0.03,1.01,-0.18,0.31,-0.24,-37,42,30,1,
0.01,-0.03,1.01,0.73,-0.31,0.18,-39,37,30,1,
0.01,-0.04,1.01,-0.24,0.06,-0.18,-39,36,29,1,
0.01,-0.03,1.01,0.12,-0.06,0.06,-39,40,33,1,
0.01,-0.03,1.01,0.24,0.12,-0.12,-38,38,31,1,
0.01,-0.04,1.01,0.06,-0.06,-0.06,-36,41,31,1,
0.01,-0.04,1.01,-0.18,0.31,-0.55,-39,39,28,1,
0.01,-0.04,1.01,0.61,0,0,-37,42,34,1,
0.01,-0.04,1.01,0.18,0.24,-0.18,-39,40,31,1,
0.01,-0.04,1.01,0.98,0.49,0,-36,39,31,1,
0.01,-0.04,1.01,0.55,0.37,0.85,-38,38,29,1,
0.01,-0.04,1.01,-0.67,0.06,-0.12,-38,39,31,1,
0.01,-0.04,1.01,-0.43,0,0.06,-38,39,34,1,
0.01,-0.04,1.01,-0.67,0,0,-39,36,31,1,
0.01,-0.04,1.01,-0.31,0.12,-0.06,-39,38,30,1,
0.01,-0.03,1.01,0.18,0.06,1.71,-38,42,34,1,
0.01,-0.04,1.01,0.12,0.12,3.17,-40,39,32,1,
0.01,-0.04,1.01,0.12,0.06,0.61,-38,38,32,1,
0.01,-0.04,1.01,0.06,0.12,0.24,-39,40,29,1,
0.01,-0.04,1.01,0,0.18,0,-36,39,32,1,
0.01,-0.04,1.01,0,0.12,0,-39,37,33,1,
0.01,-0.04,1.01,0.06,0.12,-0.12,-39,35,33,1,
0.01,-0.04,1.01,-0.12,0.18,-0.06,-37,39,26,1,
0.01,-0.04,1.01,0,0.06,-0.12,-37,41,30,1,
0.01,-0.04,1.01,0.06,0.12,-0.06,-39,41,32,1,
0.01,-0.04,1.01,0,0.06,-0.12,-40,40,35,1,
0.01,-0.04,1.01,0.12,0.18,-0.18,-39,39,30,1,
0.01,-0.04,1.01,0.12,0.06,-0.06,-39,38,34,1,
0.01,-0.04,1.01,0,0.12,-0.12,-39,42,30,1,
0.01,-0.04,1.01,0,0.12,-0.12,-34,39,33,1,
0.01,-0.04,1.01,0,0.06,-0.12,-39,38,33,1,
0.01,-0.04,1.01,-0.12,0.06,-0.18,-38,42,29,1,
0.01,-0.04,1.01,0,0.18,-0.12,-39,39,29,1,
0.01,-0.04,1.01,0.06,0.12,-0.12,-38,37,29,1,
0.01,-0.04,1.01,0,0.12,-0.12,-37,41,35,1,
0.01,-0.04,1.01,0,0.06,-0.12,-38,40,32,1,
0.01,-0.04,1.01,0.06,0.12,-0.06,-38,36,31,1,
0.01,-0.04,1.01,0.12,0.06,-0.12,-39,38,29,1,
0.01,-0.04,1.01,0,0.06,-0.24,-39,40,31,1,
0.01,-0.04,1.01,0,0.12,-0.12,-40,40,31,1,
0.01,-0.04,1.01,0.06,0.06,-0.12,-37,39,32,1,
0.01,-0.04,1.01,0,0.06,-0.12,-39,38,33,1,
0.01,-0.04,1.01,0.06,0.06,-0.06,-38,39,33,1,
0.01,-0.04,1.01,0,0.06,-0.06,-37,43,33,1,
0.01,-0.04,1.01,0.12,0.06,-0.06,-38,41,33,1,
0.01,-0.04,1.01,0,0.06,0,-39,39,36,1,
0.01,-0.04,1.01,0,0,-0.06,-37,39,33,1,
0.01,-0.04,1.01,0,0.06,-0.06,-38,40,28,1,
0.01,-0.04,1.01,0,0.12,0,-39,38,34,1,
0.01,-0.04,1.01,0,0.06,-0.12,-39,37,33,1,
0.01,-0.04,1.01,0.06,0.12,0,-38,38,33,1,
0.01,-0.04,1.01,0,0.06,-0.06,-38,38,27,1,
0.01,-0.04,1.01,0,0.12,-0.06,-38,39,32,1,
0.02,-0.04,1.01,0.12,0.12,0.06,-38,39,33,1,
0.01,-0.04,1.01,-0.06,0,0.06,-38,39,31,1,
0.02,-0.04,1.01,0,0.12,-0.06,-39,39,29,1,
0.01,-0.04,1.01,0,0.06,-0.06,-39,39,31,1,
0.02,-0.04,1.01,0,0.06,-0.12,-37,40,36,1,
0.01,-0.04,1.01,0.12,0.18,-0.06,-39,39,33,1,
0.01,-0.04,1.01,-0.18,0.12,-0.12,-39,41,31,1,
0.01,-0.04,1.01,-0.12,0.06,-0.06,-36,42,36,1,
0.01,-0.04,1.01,0.06,0.12,-0.12,-41,40,35,1,
0.01,-0.04,1.01,0.06,0,-0.18,-37,39,32,1,
0.01,-0.04,1.01,0,0.12,-0.06,-36,39,35,1,
0.01,-0.04,1.01,0,0.12,-0.18,-39,41,30,1,
0.01,-0.04,1.01,0.06,0.06,-0.06,-39,39,29,1,
0.01,-0.04,1.01,0,0.06,-0.12,-39,38,34,1,
0.01,-0.04,1.01,0,0.18,-0.24,-37,41,34,1,
0.01,-0.04,1.01,0,0.18,-0.12,-39,38,33,1,
0.02,-0.04,1.01,0,0.18,-0.12,-36,38,29,1,
0.01,-0.04,1.01,0,0.12,-0.06,-39,40,31,1,
0.01,-0.04,1.01,-0.12,0,-0.18,-39,37,34,1,
0.01,-0.04,1.01,0,0.12,-0.12,-41,41,32,1,
0.01,-0.04,1.01,-0.06,-0.06,-0.06,-37,37,34,1,
0.01,-0.04,1.01,-0.06,0.12,-0.12,-40,39,34,1,
0.01,-0.04,1.01,0,0.06,-0.12,-39,37,34,1,
0.01,-0.04,1.01,0.06,0.06,-0.24,-37,38,28,1,
0.01,-0.04,1.01,0.12,0.06,0,-39,38,31,1,
0.01,-0.04,1.01,-0.06,0.06,0.06,-38,39,31,1,
0.01,-0.04,1.01,-0.18,0.12,-0.12,-39,39,29,1,
0.01,-0.04,1.01,0.12,0.06,-0.06,-39,41,31,1,
0.01,-0.04,1.01,0,0.06,-0.18,-38,36,29,1,
0.01,-0.04,1.01,-0.06,0.12,-0.12,-39,39,32,1,
0.01,-0.04,1.01,-0.12,0.06,-0.12,-39,40,29,1,
0.01,-0.04,1.01,0,0.12,-0.12,-39,42,32,1,
0.01,-0.04,1.01,-0.06,0.12,-0.18,-37,41,30,1,
0.01,-0.04,1.01,0,0.12,-0.12,-37,40,33,1,
0.01,-0.04,1.01,0,0.06,-0.12,-39,39,35,1,
0.01,-0.04,1.01,0,0,-0.12,-38,40,29,1,
0.01,-0.04,1.01,-0.06,0.06,-0.18,-37,40,34,1,
0.01,-0.04,1.01,-0.06,0.06,-0.24,-38,39,29,1,
0.01,-0.04,1.01,0.06,0.12,-0.18,-38,39,33,1,
0.01,-0.04,1.01,0,0.12,-0.12,-38,38,36,1,
0.01,-0.04,1.01,0.06,0,-0.18,-39,39,31,1,
0.01,-0.04,1.01,-0.06,0.18,-0.18,-38,40,34,1,
0.01,-0.04,1.01,0.06,0.06,-0.12,-41,37,36,1,
0.01,-0.04,1.01,0.06,0,-0.06,-38,40,33,1,
0.01,-0.04,1.01,-0.06,0.06,-0.06,-39,40,34,1,
0.01,-0.04,1.01,-0.06,0.06,-0.12,-40,39,33,1,
0.01,-0.04,1.01,0.06,0.12,-0.24,-39,39,33,1,
0.01,-0.04,1.01,0.06,0.06,-0.12,-38,40,33,1,
0.01,-0.04,1.01,0.06,0,-0.18,-38,39,31,1,
0.01,-0.04,1.01,0.12,0.06,-0.12,-37,39,34,1,
0.01,-0.04,1.01,-0.06,0.18,-0.06,-37,38,30,1,
0.01,-0.04,1.01,0.06,0.12,-0.12,-41,39,34,1,
0.01,-0.04,1.01,0.12,0.06,-0.12,-36,39,32,1,
0.01,-0.04,1.01,0.12,0.06,-0.12,-39,39,34,1,
0.01,-0.04,1.01,-0.06,0.06,-0.12,-39,37,34,1,
0.01,-0.04,1.01,-0.06,0.06,-0.18,-39,38,30,1,
0.01,-0.04,1.01,-0.12,0.06,-0.12,-39,39,30,1,
0.01,-0.04,1.01,0,0.06,-0.18,-39,39,31,1,
0.01,-0.04,1.01,-0.06,0.06,-0.12,-39,39,30,1,
0.01,-0.04,1.01,0.06,0.06,-0.12,-40,36,31,1,
0.01,-0.04,1.01,0,0.12,-0.18,-36,39,33,1,
0.01,-0.04,1.01,0,0.12,-0.12,-38,39,34,1,
0.01,-0.04,1.01,0,0,-0.12,-36,39,31,1,
0.01,-0.04,1.01,0,0.12,-0.18,-38,39,34,1,
0.01,-0.04,1.01,0,0.12,-0.18,-36,39,33,1,
0.01,-0.04,1.01,-0.06,-0.06,0,-39,39,31,1,
0.01,-0.04,1.01,-0.06,0.06,-0.12,-41,39,31,1,
0.01,-0.04,1.01,0,0.12,-0.18,-38,39,31,1,
0.01,-0.04,1.01,0.12,0,-0.12,-37,39,32,1,
0.01,-0.04,1.01,0,0.12,-0.06,-38,38,33,1,
0.01,-0.04,1.01,-0.06,0.06,-0.12,-39,39,31,1,
0.01,-0.04,1.01,0.12,0.06,-0.12,-39,40,27,1,
0.01,-0.04,1.01,0,0.12,-0.12,-38,37,34,1,
0.01,-0.04,1.01,-0.06,0.06,-0.12,-39,39,34,1,
0.01,-0.04,1.01,0.06,0.12,-0.12,-38,39,36,1,
0.01,-0.04,1.01,0,0.12,-0.06,-37,38,37,1,
0.01,-0.04,1.01,0,0.06,-0.12,-39,39,36,1,
0.01,-0.04,1.01,0,0.12,-0.12,-38,39,35,1,
0.01,-0.04,1.01,0,0.06,-0.24,-39,38,33,1,
0.01,-0.04,1.01,0,0.12,-0.18,-38,38,35,1,
0.01,-0.04,1.01,0,0.06,-0.12,-41,39,29,1,
0.01,-0.04,1.01,-0.06,0,-0.18,-39,38,31,1,
0.01,-0.04,1.01,0,0.12,-0.12,-41,39,36,1,
0.01,-0.04,1.01,-0.12,0.06,-0.12,-38,39,31,1,
0.01,-0.04,1.01,-0.06,0.12,-0.12,-37,39,31,1,
0.01,-0.04,1.01,0.06,-0.06,-0.12,-38,39,29,1,
0.01,-0.04,1.01,-0.06,0.12,-0.18,-41,39,32,1,
0.01,-0.04,1.01,-0.12,0.06,-0.18,-36,39,29,1,
0.01,-0.04,1.01,0.06,0.18,-0.12,-39,39,38,1,
0.01,-0.04,1.01,0,0.06,-0.12,-38,37,27,1,
0.01,-0.04,1.01,-0.06,0.06,-0.18,-39,39,28,1,
0.01,-0.04,1.01,0,0.12,-0.18,-38,38,32,1,
0.01,-0.04,1.01,0.06,0.12,-0.18,-37,38,32,1,
0.01,-0.04,1.01,0,0.06,-0.18,-39,39,34,1,
0.01,-0.04,1.01,0,0.06,-0.06,-39,39,34,1,
0.01,-0.04,1.01,0.06,0.06,-0.24,-39,40,31,1,
0.01,-0.04,1.01,0,0.06,-0.18,-38,38,31,1,
0.01,-0.04,1.01,0,0.12,-0.24,-38,38,34,1,
0.01,-0.04,1.01,0,0.12,-0.18,-38,39,33,1,
0.01,-0.04,1.01,0,0.12,-0.12,-37,41,29,1,
0.01,-0.04,1.01,0,0.12,-0.18,-39,42,34,1,
0.01,-0.04,1.01,0,0.12,0,-37,38,31,1,
0.01,-0.04,1.01,0,0.18,-0.18,-39,38,37,1,
0.01,-0.04,1.01,-0.06,0.06,-0.18,-36,41,34,1,
0.01,-0.04,1.01,-0.06,0.06,-0.12,-40,39,32,1,
0.01,-0.04,1.01,0.12,0.18,-0.18,-39,37,36,1,
0.01,-0.04,1.01,-0.06,0,-0.18,-40,38,28,1,
0.01,-0.04,1.01,0.06,0.06,-0.06,-39,36,34,1,
0.01,-0.04,1.01,-0.06,0.12,-0.18,-41,39,35,1,
0.01,-0.04,1.01,-0.06,0.06,-0.18,-37,41,36,1,
0.01,-0.04,1.01,0,0.06,-0.12,-38,39,38,1,
0.01,-0.04,1.01,0,0.12,-0.12,-39,39,27,1,
0.01,-0.04,1.01,-0.06,0.12,-0.24,-40,38,33,1,
0.01,-0.04,1.01,0,0.06,-0.12,-40,38,35,1,
0.01,-0.04,1.01,0,0.06,-0.12,-38,38,33,1,
0.01,-0.04,1.01,0.12,0.06,-0.12,-38,39,30,1,
0.01,-0.04,1.01,-0.06,0.06,-0.18,-40,39,31,1,
0.01,-0.04,1.01,0.18,0.06,-0.18,-39,41,31,1,
0.01,-0.04,1.01,-0.06,0.12,-0.12,-39,40,34,1,
0.01,-0.04,1.01,0,0.06,-0.18,-39,39,36,1,
0.01,-0.04,1.01,0,0.12,-0.12,-38,41,33,1,
0.01,-0.04,1.01,-0.12,0.06,-0.24,-38,39,34,1,
0.01,-0.04,1.01,-0.06,0.12,-0.18,-36,37,36,1,
0.01,-0.04,1.01,-0.06,0.06,-0.18,-41,39,29,1,
0.01,-0.04,1.01,0.06,0.12,-0.12,-39,37,33,1,
0.01,-0.04,1.01,0.06,0.06,-0.12,-37,37,34,1,
0.01,-0.04,1.01,-0.06,0.18,-0.24,-38,41,34,1,
0.01,-0.04,1.01,-0.06,0.12,-0.18,-38,36,34,1,
0.01,-0.04,1.01,-0.06,0.12,-0.06,-40,38,29,1,
0.01,-0.04,1.01,0.06,0.06,-0.12,-39,38,29,1,
0.01,-0.04,1.01,0.06,0.06,-0.18,-36,37,34,1,
0.01,-0.04,1.01,0,-0.06,-0.06,-41,38,36,1,
0.01,-0.04,1.01,0,-0.06,0,-39,38,31,1,
0.01,-0.04,1.01,0,0.06,-0.06,-40,38,31,1,
0.01,-0.04,1.01,-0.06,0.12,0.12,-37,37,29,1,
0.01,-0.04,1.01,-0.12,0.12,-0.06,-38,37,33,1,
0.01,-0.04,1.01,0.06,0.12,-0.06,-40,40,34,1,
0.01,-0.04,1.01,-0.06,0,-0.12,-38,38,31,1,
0.01,-0.04,1.01,0.06,0,-0.06,-41,38,35,1,
0.01,-0.04,1.01,0,0.12,-0.12,-39,37,30,1,
0.01,-0.04,1.01,0.06,0.06,0,-39,38,33,1,
0.01,-0.04,1.01,0,0.12,-0.12,-38,40,34,1,
0.01,-0.04,1.01,0.06,0.12,-0.12,-40,38,32,1,
0.01,-0.04,1.01,0,0.12,-0.18,-38,38,31,1,
0.01,-0.04,1.01,0,0.12,-0.18,-38,39,32,1,
0.01,-0.04,1.01,0,0.06,-0.18,-40,42,29,1,
0.01,-0.04,1.01,0.06,0.12,-0.06,-37,37,32,1,
0.01,-0.04,1.01,0.06,0.06,-0.18,-38,40,33,1,
0.01,-0.04,1.01,0,0,-0.06,-39,39,31,1,
0.01,-0.04,1.01,0,0.12,-0.24,-38,36,31,1,
0.01,-0.04,1.01,-0.06,0.12,-0.12,-38,38,34,1,
0.01,-0.04,1.01,-0.12,0.12,-0.06,-37,41,31,1,
0.01,-0.04,1.01,-0.06,0.12,-0.18,-40,39,33,1,
0.01,-0.04,1.01,0.06,0.06,-0.12,-38,39,30,1,
0.01,-0.04,1.01,0,0.06,-0.12,-38,38,31,1,
0.01,-0.04,1.01,-0.06,0.12,-0.06,-37,40,31,1,
0.01,-0.04,1.01,0,0.12,-0.18,-39,39,33,1,
0.01,-0.04,1.01,-0.06,0.12,-0.12,-39,39,27,1,
0.01,-0.04,1.01,0,0.06,-0.12,-38,40,32,1,
0.01,-0.04,1.01,-0.06,0.12,-0.12,-38,38,37,1,
0.01,-0.04,1.01,0,0,-0.18,-40,41,30,1,
0.01,-0.04,1.01,-0.06,0.12,-0.12,-39,41,32,1,
0.01,-0.04,1.01,0.12,0.18,-0.12,-39,38,34,1,
0.01,-0.04,1.01,-0.06,0.06,-0.12,-39,39,29,1,
0.01,-0.04,1.01,0.06,0.12,-0.12,-39,39,31,1,
0.01,-0.04,1.01,-0.06,0.06,-0.06,-40,39,30,1,
0.01,-0.04,1.01,-0.06,0.06,-0.06,-39,39,30,1,
0.01,-0.04,1.01,0,0.12,-0.18,-40,40,33,1,
0.01,-0.04,1.01,0.06,0.18,-0.18,-39,38,35,1,
0.01,-0.04,1.01,-0.06,0.12,-0.12,-39,38,32,1,
0.01,-0.04,1.01,0,0.06,-0.06,-37,40,31,1,
0.01,-0.04,1.01,0.06,0.06,-0.18,-41,40,35,1,
0.01,-0.04,1.01,0,0.12,-0.12,-37,38,31,1,
0.01,-0.04,1.01,0,0,-0.06,-39,38,34,1,
0.01,-0.04,1.01,-0.18,0,-0.06,-41,40,33,1,
0.01,-0.04,1.01,0,0.12,-0.12,-39,39,27,1,
0.01,-0.04,1.01,0,0.12,-0.12,-39,39,32,1,
0.01,-0.04,1.01,0.06,0.12,-0.06,-39,43,30,1,
0.01,-0.04,1.01,-0.06,0.12,-0.12,-40,38,34,1,
0.01,-0.04,1.01,0.12,0,0.12,-40,38,31,1,
0.01,-0.04,1.01,0.06,0.06,-0.12,-38,41,32,1,
0.01,-0.04,1.01,0,0.12,-0.18,-38,39,31,1,
0.01,-0.04,1.01,-0.06,0.12,-0.18,-39,36,38,1,
0.01,-0.04,1.01,0,0,-0.12,-39,39,31,1,
0.01,-0.04,1.01,0.06,0,-0.18,-39,38,36,1,
0.01,-0.04,1.01,-0.06,0.06,-0.12,-40,39,36,1,
0.01,-0.04,1.01,0.06,0.06,-0.12,-38,40,30,1,
0.01,-0.04,1.01,0,0.06,-0.18,-38,39,37,1,
0.01,-0.04,1.01,0,0.06,-0.12,-38,40,31,1,
0.01,-0.04,1.01,0,0.12,-0.12,-39,39,29,1,
0.01,-0.04,1.01,0.06,0.06,-0.18,-38,39,35,1,
0.01,-0.04,1.01,-0.06,0.06,-0.18,-39,40,29,1,
0.01,-0.04,1.01,0.06,0.12,-0.12,-40,38,31,1,
0.01,-0.04,1.01,-0.06,0.06,-0.18,-38,40,31,1,
0.01,-0.04,1.01,-0.06,0.06,-0.12,-39,39,36,1,
0.01,-0.04,1.01,0.06,0,-0.12,-40,39,35,1,
0.01,-0.04,1.01,0.06,0.06,-0.18,-36,39,33,1,
0.01,-0.04,1.01,0.06,0.12,-0.18,-39,41,33,1,
0.01,-0.04,1.01,0,0.06,-0.12,-39,38,33,1,
0.01,-0.04,1.01,0.06,0.06,-0.06,-38,39,33,1,
0.01,-0.04,1.01,0,0,-0.12,-39,39,33,1,
0.01,-0.04,1.01,-0.06,0.06,-0.12,-39,40,35,1,
0.01,-0.04,1.01,0,0.06,-0.18,-40,38,33,1,
0.01,-0.04,1.01,0.06,0.06,-0.12,-38,36,30,1,
0.01,-0.04,1.01,0,0,-0.06,-39,39,29,1,
0.01,-0.04,1.01,0.06,0.06,-0.06,-39,36,28,1,
0.01,-0.04,1.01,0.12,0.12,-0.12,-39,40,29,1,
0.01,-0.04,1.01,-0.06,0.12,-0.12,-38,38,32,1,
0.01,-0.04,1.01,0,0,-0.12,-41,39,35,1,
0.01,-0.04,1.01,0,0.12,-0.12,-39,38,33,1,
0.01,-0.04,1.01,-0.06,0,-0.12,-39,41,33,1,
0.01,-0.04,1.01,0,0.06,-0.12,-38,39,33,1,
0.01,-0.04,1.01,0,0.12,-0.18,-39,39,31,1,
0.01,-0.04,1.01,-0.12,0.12,-0.12,-39,40,31,1,
0.01,-0.04,1.01,-0.06,0.06,-0.18,-39,38,28,1,
0.01,-0.04,1.01,0,0.06,-0.24,-40,39,28,1,
0.01,-0.04,1.01,-0.12,0.06,-0.12,-41,40,31,1,
0.01,-0.04,1.01,-0.06,0.12,-0.18,-38,39,31,1,
0.01,-0.04,1.01,0.06,0.06,-0.18,-39,38,36,1,
0,-0.04,1.01,0,0.06,-0.18,-37,39,34,1,
0.01,-0.04,1.01,0,0.06,-0.18,-39,39,34,1,
0.01,-0.04,1.01,0,0.06,-0.18,-41,39,30,1,
0.01,-0.04,1.01,0.12,0.06,-0.18,-38,40,28,1,
0.01,-0.04,1.01,-0.06,0.12,-0.12,-39,41,28,1,
0.01,-0.04,1.01,0.06,0.12,-0.12,-37,41,30,1,
0.01,-0.04,1.01,-0.06,0.06,-0.18,-37,38,28,1,
0.02,-0.04,1.01,0,0,-0.12,-40,40,34,1,
0.01,-0.04,1.01,0,0,-0.12,-39,41,31,1,
0.01,-0.04,1.01,0,0.12,-0.24,-39,39,28,1,
0.01,-0.04,1.01,0,0.12,-0.18,-38,40,35,1,
0.01,-0.04,1.01,0,0.12,-0.06,-39,41,30,1,
0.02,-0.04,1.01,0,0.06,-0.18,-38,40,31,1,
0.01,-0.04,1.01,-0.12,0.18,-0.18,-38,40,33,1,
0.01,-0.04,1.01,-0.06,0.12,-0.18,-40,38,27,1,
0.01,-0.04,1.01,0.12,0.06,-0.06,-38,38,33,1,
0.01,-0.04,1.01,0,0.06,-0.06,-37,38,31,1,
0.01,-0.04,1.01,0.06,0.06,-0.12,-39,40,33,1,
0.02,-0.04,1.01,0,0.18,-0.12,-39,40,31,1,
0.01,-0.04,1.01,0.06,0,-0.06,-39,39,34,1,
0.01,-0.04,1.01,0,0.12,-0.12,-40,38,30,1,
0.01,-0.04,1.01,-0.06,0.12,-0.12,-40,39,32,1,
0.01,-0.04,1.01,-0.12,0.12,-0.18,-38,38,31,1,
0.01,-0.04,1.01,0.06,0.18,-0.18,-39,38,28,1,
0.02,-0.04,1.01,-0.12,0.06,-0.12,-39,39,31,1,
0.02,-0.04,1.01,0,0.12,0,-40,40,32,1,
0.01,-0.04,1.01,-0.12,-0.06,-0.12,-40,38,30,1,
0.01,-0.04,1.01,0.06,0.06,-0.18,-38,41,33,1,
0.01,-0.04,1.01,-0.06,0,-0.12,-36,39,30,1,
0.01,-0.04,1.01,-0.06,0.18,-0.12,-38,40,29,1,
0.01,-0.04,1.01,0.06,0.12,-0.18,-37,39,33,1,
0.01,-0.04,1.01,0,0.18,-0.24,-38,38,31,1,
0.01,-0.04,1.01,-0.18,0,-0.12,-40,40,36,1,
0.01,-0.04,1.01,-0.06,-0.06,-0.06,-41,41,31,1,
0.01,-0.04,1.01,-0.31,0,-0.24,-38,38,31,1,
0.01,-0.04,1.01,-0.12,-0.31,0.92,-41,39,31,1,
0.01,-0.04,1.01,0.37,0.24,-0.06,-38,40,32,1,
0.01,-0.04,1.01,0.06,0.06,-0.18,-37,39,34,1,
0.01,-0.04,1.01,0.12,0.12,-0.12,-40,42,34,1,
0.01,-0.04,1.01,-0.06,0.06,0.12,-39,40,33,1,
0.01,-0.04,1.01,-0.24,0.06,-0.18,-39,39,34,1,
0.01,-0.03,1.01,-0.12,-0.12,1.28,-39,39,34,1,
0.01,-0.04,1.01,0.06,0.31,-0.12,-40,40,35,1,
0.02,-0.04,1.01,-0.18,0.18,-0.18,-38,35,36,1,
0.01,-0.04,1.01,0.18,0.12,0,-38,40,32,1,
0.01,-0.04,1.01,-0.06,0.18,0.12,-37,36,32,1,
0.01,-0.04,1.01,0,0.12,0,-40,38,33,1,
0.01,-0.04,1.01,-0.12,0,0.92,-40,41,31,1,
0.01,-0.04,1.01,-0.06,0,0.98,-37,39,33,1,
0.01,-0.04,1.01,-0.24,0.06,0.12,-38,39,34,1,
0.01,-0.04,1.01,0.06,0.18,-0.24,-39,37,36,1,
0.02,-0.04,1.01,0.31,0.43,-0.24,-39,41,32,1,
0.01,-0.04,1.01,0.18,0.24,-0.18,-38,38,30,1,
0.01,-0.04,1.01,-0.12,0.06,-0.18,-39,41,33,1,
0.01,-0.04,1.01,0.31,0.12,-0.06,-39,38,35,1,
0.01,-0.04,1.01,0.06,0,-0.18,-39,42,33,1,
0.01,-0.04,1.01,-0.18,0,-0.12,-39,39,33,1,
0.01,-0.04,1.01,-0.12,0.06,-0.24,-40,40,36,1,
0.02,-0.04,1.01,-0.06,-0.06,0,-39,38,36,1,
0.02,-0.04,1.01,0,0.06,-0.18,-38,38,31,1,
0.01,-0.04,1.01,-0.12,0,-0.12,-38,38,36,1,
0.01,-0.03,1.01,-0.12,0,-0.18,-39,38,31,1,
0.01,-0.03,1.01,-0.18,-0.06,0,-38,36,31,1,
0.01,-0.03,1.01,-0.18,0,-0.06,-39,40,33,1,
0.01,-0.03,1.01,0.37,0.12,0.31,-38,36,27,1,
0.02,-0.04,1.01,0.24,0.18,-0.06,-36,39,32,1,
0.01,-0.04,1.01,-0.06,0.06,-0.06,-40,38,29,1,
0.01,-0.03,1.01,-0.06,0.12,-0.18,-39,38,33,1,
0.01,-0.04,1.01,0.12,0.24,-0.18,-39,38,34,1,
0.01,-0.03,1.01,0.12,0.18,-0.12,-39,42,36,1,
0.01,-0.03,1.01,-0.06,0.12,-0.12,-39,40,34,1,
0.01,-0.04,1.01,-0.12,0.06,-0.12,-39,39,32,1,
0.01,-0.04,1.01,0.12,0,-0.18,-38,40,31,1,
0.02,-0.03,1.01,0.31,0.06,-0.06,-39,36,31,1,
0.01,-0.04,1.01,0.06,0,-0.12,-40,41,35,1,
0.01,-0.04,1.01,-0.12,0.06,-0.12,-38,37,35,1,
0.01,-0.03,1.01,-0.12,0.06,-0.12,-39,38,33,1,
0.02,-0.04,1.01,-0.12,0,0.31,-38,38,33,1,
0.01,-0.04,1.01,-0.18,-0.12,0.31,-38,39,33,1,
0.01,-0.04,1.01,-0.31,-0.12,-0.12,-39,39,30,1,
0.01,-0.04,1.01,-0.18,-0.12,0.49,-41,39,32,1,
0.01,-0.04,1.01,0.31,0.24,-0.18,-40,40,31,1,
0.01,-0.04,1.01,0.61,0.24,0,-37,38,38,1,
0.01,-0.04,1.01,-0.85,0.24,-0.24,-38,38,31,1,
0.01,-0.03,1.01,-1.1,-0.37,0.24,-39,39,34,1,
0.01,-0.03,1.01,0.55,0.18,0.43,-41,38,26,1,
0.01,-0.03,1.01,-0.61,-0.31,-0.06,-40,37,31,1,
0.01,-0.04,1.02,7.26,2.26,0.73,-39,39,33,1,
0.01,-0.04,1.01,-0.37,0.24,-0.49,-39,38,36,1,
0.01,-0.04,1.01,-0.49,-0.12,-0.43,-38,41,29,1,
0.01,-0.03,1.01,-0.49,-0.12,0.06,-40,37,34,1,
0.01,-0.03,1.01,0.12,0.18,-0.61,-38,39,30,1,
0.01,-0.04,1.01,0.31,0.55,-1.4,-41,39,30,1,
0.01,-0.04,1.01,0.06,0.37,-1.95,-38,39,31,1,
0.01,-0.04,1.01,0.18,-0.06,-0.12,-41,38,36,1,
0.01,-0.04,1.01,0.98,1.04,-2.62,-38,40,33,1,
0.01,-0.04,1.01,2.2,0.37,-0.24,-39,38,33,1,
0.01,-0.04,1.02,1.95,0.37,0.92,-39,37,32,1,
0.01,-0.04,1.01,0.12,0.55,0.24,-40,40,32,1,
0.02,-0.05,1.01,1.89,0.18,0.06,-40,39,29,1,
0.01,-0.06,1.01,0.06,0.49,0.18,-42,39,36,1,
0.02,-0.05,1.01,-0.12,0.61,-1.22,-40,38,33,1,
0.02,-0.05,1.02,4.39,-1.1,0.37,-36,39,31,1,
0.03,-0.06,1,3.85,7.57,-3.66,-41,39,34,1,
0.04,-0.07,1,4.09,1.28,0,-42,38,34,1,
0.04,-0.06,1.01,-0.92,-1.4,0.24,-39,38,33,1,
0.03,-0.07,1,-4.88,-4.21,0.24,-40,38,27,1,
0.02,-0.06,1.01,3.05,-0.98,-0.18,-41,39,34,1,
0.02,-0.09,1.01,0.85,-0.24,-2.32,-42,37,26,1,
0.02,-0.06,1.01,-2.99,1.16,2.38,-41,38,33,1,
0.01,-0.07,1.02,4.03,-3.97,-0.55,-42,39,31,1,
0.04,-0.08,1.01,0.55,0.49,-1.28,-41,37,29,1,
0.02,-0.08,1.01,1.34,0.43,-0.73,-39,39,26,1,
0,0,6       1.0,2       1.10,-0.24,0.37,-41,41,32,1,
0.01,-0.09,1,2.81,-1.59,0.92,-41,39,32,1,
0.01,-0.08,1,1.16,-0.12,-0.37,-44,38,34,1,
0.03,-0.09,1.01,-3.91,-4.39,2.08,-40,38,31,1,
0.01,-0.07,1,-0.73,-3.97,2.32,-38,40,31,1,
-0.01,0,7       1.0,1       -3.17,-1.77,1.53,-41,40,33,1,
-0.01,0,6       1.0,1       -2.01,-0.49,1.28,-40,41,34,1,
0,0,4       1.0,3       -10.50,2.2,4.94,-40,41,29,1,
0,-0.03,1.02,3.17,5.13,1.53,-38,41,27,1,
0,0,3       1.0,2       0.24,-1.04,2.32,-41,39,30,1,
-0.01,0,4       1.0,0       -0.67,-1.65,1.95,-41,39,24,1,
0,0,3       1.0,2       0.43,8.36,2.26,-41,42,28,1,
0.01,-0.03,1.02,-2.26,1.83,-1.65,-40,38,30,1,
0.02,-0.02,1.01,-9.58,-4.64,-0.43,-41,39,33,1,
0,0,1,-4.7,2.56,-1.16,-40,38,33,1,
0.01,0,1,0.79,5.49,2.2,-41,38,31,1,
0.03,-0.01,1,-3.3,-1.77,0.24,-40,40,34,1,
0.02,0.01,1.02,-9.95,-4.88,-2.93,-41,40,32,1,
0.01,0.02,1.05,-21.12,-21.06,-4.27,-39,38,30,1,
-0.06,0.05,0.98,-13.98,-29,5       -4.0,9       -38.0,0       39.0,0       29.0,0       1,
0,0.03,1.01,39.73,25.27,0.67,-40,42,35,1,
0,0.01,1.04,-8.61,-0.37,-0.73,-40,38,27,1,
-0.02,0,0       1.0,8       -8.67,0.85,-2.32,-40,41,32,1,
-0.03,0.05,1,7.14,-4.76,-0.43,-41,39,30,1,
-0.02,0.01,1,2.99,7.75,2.01,-41,38,29,1,
-0.01,0.02,1.01,14.28,8.42,-2.69,-43,37,26,1,
-0.01,0.01,0.97,-8.73,-5.25,2.38,-41,41,31,1,
-0.03,0.04,1.01,1.1,-7.87,1.16,-44,38,31,1,
-0.04,0.01,1.02,5.07,-5,4.21,-42,40,32,1,
-0.04,0.01,1.01,-0.85,3.91,0.73,-43,39,29,1,
-0.01,0,1.02,-0.73,0.12,1.59,-44,37,31,1,
-0.02,0.01,1.01,2.26,0.24,0.67,-43,38,32,1,
0,0,1.02,0.67,-4.39,-0.73,-46,37,34,1,
-0.02,0.02,1,-1.28,0.79,1.65,-44,37,27,1,
-0.02,0,2       1.0,0       7.02,-9.7,4.33,-46,36,29,1,
-0.02,0,1       1.0,2       0.92,0.67,0.12,-46,37,33,1,
-0.03,0,1       1.0,0       -2.08,8,3.85,-49,36,30,1,
-0.01,0,2       1.0,1       -2.50,-1.77,7.14,-46,35,34,1,
-0.03,0,1       0.9,9       -4.39,9.83,-2.93,-47,36,32,1,
0,0.01,1.03,1.16,0.06,5.13,-48,36,33,1,
-0.03,0,1.04,0.98,-17.15,4.7,-47,38,30,1,
-0.08,0,1       1.0,1       4.21,-14.04,1.46,-48,39,31,1,
-0.09,0,2       1.0,2       5.37,4.46,3.6,-45,39,31,1,
-0.08,0,3       1.0,2       3.11,-7.02,1.34,-48,38,33,1,
-0.08,0,4       1.0,2       -3.05,-2.08,0.55,-49,39,30,1,
-0.08,0,2       1.0,1       -3.36,0,2.44,-50,38,28,1,
-0.06,0,1       1.0,0       1.77,4.52,1.1,-46,37,29,1,
-0.1,0,3       0.9,9       -1.22,-7.69,4.94,-49,39,35,1,
-0.1,0,4       1.0,0       -2.01,1.77,-0.98,-49,38,31,1,
-0.11,0,4       1.0,2       2.50,-1.28,-1.34,-47,37,28,1,
-0.08,0,1.04,-11.96,-6.41,7.32,-46,41,31,1,
-0.14,0,2       1.0,0       -1.22,-12.4,5       4.82,-45,39,33,1,
-0.13,0.01,1.02,5.49,7.69,1.34,-49,42,28,1,
-0.13,0,1       1.0,0       9.58,-1.65,1.95,-45,41,32,1,
-0.15,0,3       0.9,9       2.62,-1.1,5.62,-45,39,29,1,
-0.12,0,2       1.0,2       2.62,4.58,8.85,-48,38,32,1,
-0.15,-0.1,0       0.9,7       14.28,7.26,3.54,-49,41,31,1,
-0.09,0,8       1.0,1       -11.11,4.94,6.47,-46,41,29,1,
-0.12,0,3       1.0,1       0.85,-1.53,3.05,-48,39,29,1,
-0.14,0,5       0.9,9       -5.92,-2.81,6.23,-45,41,26,1,
-0.09,0,5       1.0,0       -16.24,30.8,2       13.1,8       -48.0,0       41.0,0       27.0,0       1,
-0.02,0.02,1.07,3.54,14.22,4.88,-46,37,29,1,
-0.05,0,3       1.0,0       26.31,11.54,-17,9       -47.0,0       37.0,0       30.0,0       1,
-0.07,0,6       0.9,9       7.75,-12.33,1.53,-49,37,31,1,
-0.07,-0.1,4       0.9,8       -10.38,5.25,-3.3,-46,38,33,1,
-0.07,0,4       1.0,4       -7.02,1.95,-6.16,-44,37,30,1,
-0.09,0,2       1.0,3       -8.61,-11.7,8       -3.5,4       -45.0,0       39.0,0       26.0,0       1,
-0.08,0,2       1.0,0       1.77,8.85,-17.33,-46,40,26,1,
-0.07,0,3       1.0,2       3.48,###############################################################################################################################################################################################################################################################,-4.94,-44,41,29,1,
-0.11,0,3       0.9,7       6.71,3.54,-13,-45,39,29,1,
-0.13,0,4       0.9,5       2.20,-11.84,-1.95,-42,38,32,1,
-0.14,0,5       0.9,4       -6.53,9.28,-1.89,-48,40,30,1,
-0.1,0,6       0.9,7       5.74,0.06,-11.35,-43,42,32,1,
-0.12,0,7       0.9,8       -5.98,3.72,-4.76,-43,41,31,1,
-0.05,0,1       1.0,3       -1.40,-1.71,0.12,-45,41,32,1,
-0.11,0,3       0.9,6       -1.71,-0.61,-1.89,-43,41,34,1,
-0.1,0,1.02,-2.32,-3.48,-0.12,-44,42,29,1,
-0.1,0,2       1.0,2       3.66,2.26,-10.8,-44,41,31,1,
-0.11,0,1       1.0,2       -2.08,-2.44,-1.4,-41,40,33,1,
-0.1,0,2       0.9,9       -6.77,7.93,0.12,-41,41,28,1,
-0.09,0,6       0.9,8       3.30,20.02,-4.15,-42,38,31,1,
-0.06,0,3       1.0,0       -0.61,-2.08,2.93,-42,38,32,1,
-0.04,0,1       1.0,1       -1.59,-15.2,6       4.88,-44,38,33,1,
-0.07,0,0       1.0,2       1.16,4.7,-0.67,-43,36,33,1,
-0.08,0,1       1.0,2       -2.62,-5.49,-0.06,-43,39,33,1,
-0.09,0,1       1.0,2       -2.99,2.32,-1.04,-43,38,27,1,
-0.06,0,0       1.0,1       -4.58,6.53,-0.43,-43,38,32,1,
-0.07,0.02,1.01,-3.91,-7.2,2.75,-43,39,35,1,
-0.08,0.02,1.01,-0.12,5,-0.55,-43,38,28,1,
-0.06,0.03,0.98,3.85,2.75,0.18,-42,37,35,1,
-0.05,0.01,1.02,5.8,8.18,-1.4,-44,38,34,1,
-0.06,0,1       1.0,1       2.99,-7.14,-0.43,-44,36,33,1,
-0.05,0,1,2.5,0.98,-1.95,-44,40,28,1,
-0.03,0,2       1.0,3       -2.44,14.34,-3.17,-45,39,32,1,
0,-0.01,1.03,-1.22,5.07,-1.1,-43,37,28,1,
-0.01,0,2       1.0,1       3.11,-3.11,-1.1,-46,36,38,1,
-0.04,0,1,-4.03,-13.31,6.9,-45,36,33,1,
-0.03,0,1.02,1.53,-0.37,-3.3,-47,38,33,1,
-0.04,0,1       1.0,0       4.21,2.99,-3.91,-45,38,35,1,
-0.04,0,1       1.0,2       1.04,-1.59,-1.65,-45,38,35,1,
-0.04,0,2       1.0,2       2.87,-1.95,-3.97,-46,39,31,1,
-0.04,0,3       1.0,0       1.83,8.3,-3.05,-47,39,33,1,
-0.02,0,3       1.0,1       0.49,8.85,-2.14,-44,38,33,1,
-0.01,0,4       1.0,1       -0.98,-3.66,-0.73,-46,36,29,1,
-0.02,0,4       1.0,0       0.12,-6.41,-2.99,-46,36,27,1,
-0.03,0,2       1.0,2       -1.40,6.23,-4.27,-49,37,36,1,
-0.01,0,2       1.0,0       2.26,12.76,-5.98,-46,34,30,1,
0,-0.01,1.02,-0.55,2.38,-1.22,-48,36,34,1,
0.03,-0.02,1.02,-0.24,-1.89,-1.16,-46,36,38,1,
0,-0.04,1.03,-0.85,-7.87,-0.24,-49,35,30,1,
0.01,-0.02,1.01,-0.31,4.94,-2.56,-46,36,32,1,
0.02,-0.02,1.01,1.34,10.13,-3.36,-47,35,31,1,
0.03,-0.03,1.01,-3.05,-1.34,-0.98,-46,35,32,1,
0.02,-0.02,1.04,-3.66,1.28,-0.18,-53,38,30,1,
0.03,-0.02,1.03,1.04,4.88,-1.95,-47,33,32,1,
0.04,-0.02,1.01,2.69,7.75,-3.05,-51,35,30,1,
0.04,-0.03,0.98,-3.97,-0.37,1.71,-48,34,31,1,
0.06,-0.03,1.01,-0.67,12.08,1.46,-48,36,38,1,
0.07,-0.04,1.01,-0.43,-1.89,-0.43,-50,32,36,1,
0.07,-0.01,1.02,-2.32,3.11,-3.23,-48,34,31,1,
0.09,-0.01,0.99,4.58,0.67,-3.54,-45,35,35,1,
0.08,-0.01,1.02,1.95,-0.55,1.1,-47,35,35,1,
0.11,-0.03,1.01,3.36,23.68,1.16,-46,34,29,1,
0.11,-0.04,1.01,11.05,9.16,3.78,-45,35,38,1,
0.11,-0.04,1,-4.39,-16.6,0.06,-47,34,33,1,
0.12,-0.04,0.99,-1.59,-2.81,0.37,-46,34,36,1,
0.11,-0.06,1.01,12.21,-6.29,3.48,-44,33,32,1,
0.1,-0.08,1.01,4.94,-5.07,3.42,-44,32,34,1,
0.07,-0.09,1,4.94,-2.81,-1.59,-45,35,30,1,
0.06,-0.05,1,-11.23,-13.4,3       -2.3,2       -46.0,0       35.0,0       38.0,0       1,
0.05,-0.08,0.99,2.81,3.6,-1.89,-46,36,29,1,
0.01,-0.09,0.99,1.89,-12.39,-7.45,-45,34,33,1,
0.02,-0.08,1.03,5.62,-5.49,1.1,-45,36,36,1,
0,-0.07,1.04,-5.37,-12.21,-2.14,-46,37,28,1,
-0.02,0,8       1.0,2       -2.81,-5.43,-3.11,-45,38,34,1,
-0.03,0,6       0.9,7       -11.90,-10,68       -0.,92       -42.,00       38.,00       34.,00       1,
0,0,3       1.0,4       0.24,1.46,-8,-43,38,32,1,
-0.01,0,3       1.0,1       2.75,1.59,-5.13,-41,39,32,1,
-0.01,0,3       1.0,1       1.28,1.46,0.85,-42,37,32,1,
0,-0.04,1.01,0.55,0.61,0.79,-44,36,31,1,
0.01,-0.04,1.01,0.79,0.79,10.01,-43,37,33,1,
0,0,3       1.0,1       -0.31,0.55,-0.37,-43,38,36,1,
0,0,4       1.0,1       -0.12,0.49,-0.92,-42,36,33,1,
0,-0.03,1.01,-0.12,0.18,-0.24,-42,39,32,1,
0,-0.04,1.01,1.71,1.22,-0.12,-40,36,31,1,
0,-0.03,1.01,1.65,0.49,0.06,-41,37,31,1,
0,-0.03,1.01,0.06,0.18,-0.24,-43,38,36,1,
0,-0.03,1.01,-0.49,0,-0.18,-40,36,35,1,
0,-0.03,1.01,-0.12,0,-0.06,-41,36,30,1,
0,-0.04,1.01,-0.06,0.12,0,-42,36,31,1,
0,-0.03,1.01,-0.85,-0.24,-0.12,-43,39,31,1,
0,-0.03,1.01,-0.24,0.06,-0.12,-43,38,34,1,
0,-0.03,1.01,0.12,0.06,-0.24,-41,40,34,1,
0,-0.03,1.01,-0.98,-0.37,-0.24,-43,38,34,1,
0,-0.03,1.01,0.85,-0.12,0.12,-41,37,33,1,
0,-0.03,1.01,0.12,0.06,-0.06,-41,36,34,1,
0,-0.03,1.01,-0.06,0.12,-0.24,-42,36,32,1,
0,-0.03,1.01,-1.22,-0.06,-0.24,-42,37,34,1,
0,-0.03,1.01,1.34,0.24,0.73,-43,38,31,1,
0,-0.03,1.01,-0.31,-0.12,-0.06,-42,37,34,1,
0,-0.03,1.01,0,0.55,-0.31,-43,37,32,1,
0.01,-0.03,1.01,-0.61,-0.67,-5,-43,36,33,1,
0,-0.03,1.01,-0.24,0.67,-2.81,-41,38,31,1,
0,0,3       1.0,1       -0.31,0.43,-12.7,-42,36,36,1,
0,-0.02,1.01,-0.43,0,-7.2,-40,38,32,1,
-0.01,0,1.01,-0.61,-0.31,-3.97,-41,37,34,1,
0,-0.04,1.01,-0.12,0.49,-3.54,-42,39,33,1,
0,0,2       1.0,1       0.12,0.24,-5.43,-40,39,34,1,
0,0,3       1.0,1       -0.18,0.12,-2.14,-39,39,33,1,
0,0,3       1.0,1       -0.24,-0.24,0.37,-37,39,36,1,
-0.01,0,2       1.0,1       0.31,0.73,0.37,-36,39,33,1,
0.01,-0.03,1.01,0.31,0.06,1.28,-35,40,36,1,
0.01,-0.06,1.01,0.12,0.18,3.17,-34,40,31,1,
0.01,-0.01,1.01,-0.06,-0.37,1.34,-31,41,27,1,
0,0,2       1.0,1       -0.06,0.31,0,-31,40,29,1,
0,-0.03,1.01,-0.06,0.12,0.24,-29,41,31,1,
0,-0.04,1.01,-0.06,0.43,-1.4,-28,44,29,1,
0,-0.04,1.01,0,0.31,-1.1,-26,45,26,1,
0,0,4       1.0,1       0.00,0.24,-0.98,-25,49,27,1,
0.01,-0.04,1.01,0.37,0.31,-0.24,-24,46,28,1,
0,-0.03,1.01,0.92,1.04,0,-26,47,22,1,
0,-0.03,1.01,0.67,0.55,0.49,-24,46,26,1,
0,-0.06,1.01,0.49,-0.06,2.26,-25,45,28,1,
0.01,-0.05,1.01,0.12,0.06,3.66,-28,46,24,1,
0,-0.05,1.01,0.12,0.12,0.43,-26,44,31,1,
0.01,-0.04,1.01,0.12,0.18,0.37,-29,42,26,1,
0.01,-0.03,1.01,0,0,1.53,-36,41,30,1,
0,0,4       1.0,1       0.12,-0.06,1.34,-34,41,27,1,
0,-0.04,1.01,-0.06,-0.24,0.31,-36,39,29,1,
0.01,-0.04,1.01,0.18,0.24,-1.65,-37,40,34,1,
0.01,-0.03,1.01,-0.12,-0.06,-1.1,-38,36,33,1,
0,-0.03,1.01,-0.06,0.18,-1.89,-38,39,31,1,
0,-0.02,1.01,0.12,0.12,-1.95,-39,36,37,1,
0.01,-0.04,1.01,-0.06,0,2.26,-39,36,38,1,
0.01,-0.02,1.01,-0.06,0.06,1.22,-40,36,34,1,
0,-0.04,1.01,-0.18,0.12,0.18,-41,35,27,1,
0.01,-0.02,1.01,-0.18,0,0.73,-39,35,31,1,
0.01,-0.03,1.01,-0.73,0.18,0,-42,36,34,1,
0.01,-0.03,1.01,-0.79,-0.06,-0.43,-42,38,33,1,
0.01,-0.03,1.01,-0.92,-0.12,-2.26,-41,36,34,1,
0,-0.02,1.01,-0.06,0.06,-3.66,-41,36,33,1,
0,-0.03,1.01,0,0.12,-3.17,-42,35,31,1,
0,-0.02,1.01,-0.12,0,0.43,-40,39,33,1,
0,-0.02,1.01,-0.18,0,0.12,-39,36,34,1,
0.01,-0.04,1.01,-0.31,-0.31,1.22,-40,36,36,1,
0.01,-0.02,1.01,-0.37,-0.85,0.31,-40,38,32,1,
0,0,4       1.0,1       -0.18,0.24,-2.81,-39,38,37,1,
0,-0.03,1.01,0,0.12,-0.31,-38,36,29,1,
0,-0.04,1.01,-0.06,0.24,0.73,-38,38,29,1,
0,-0.03,1.01,0.61,0.43,-0.18,-37,39,33,1,
0,-0.03,1.01,0.61,0.31,-0.31,-38,38,29,1,
0,-0.03,1.01,0.61,0.24,-0.24,-39,37,29,1,
0,-0.03,1.01,0.98,0.18,-0.24,-38,40,32,1,
0,-0.03,1.01,-0.67,0.31,0.06,-37,39,31,1,
0.01,-0.03,1.01,-0.61,-0.31,5.13,-39,38,31,1,
0.01,-0.03,1.01,0.37,0.06,1.46,-37,38,32,1,
0.01,-0.03,1.01,0,0.06,0.55,-38,38,29,1,
0.01,-0.04,1.01,0.31,-0.24,1.4,-39,39,31,1,
0.01,-0.03,1.01,-0.12,0.12,-0.06,-38,38,31,1,
0,0,3       1.0,1       0.18,0.18,8.61,-40,39,29,1,
0.01,-0.03,1.01,0,0.18,2.38,-38,40,29,1,
0.01,-0.04,1.01,0.18,0.06,-0.12,-41,37,32,1,
0.01,-0.04,1.01,-0.79,-0.12,-0.37,-39,38,31,1,
0,-0.04,1.01,0.24,-0.31,-0.37,-39,36,32,1,
0.01,-0.04,1.01,-0.31,0.18,-0.85,-39,38,33,1,
0,-0.03,1.01,0.49,0,-0.06,-38,37,31,1,
0.03,-0.03,1.01,-0.67,-0.06,-5.74,-38,36,31,1,
0,-0.05,1.01,0.31,0.37,-1.77,-36,36,34,1,
0,-0.04,1.01,-0.06,-0.31,-3.11,-36,37,29,1,
0.01,-0.04,1.03,14.28,2.08,-2.32,-36,39,33,1,
0.02,-0.11,1,0.85,-0.61,-4.58,-40,39,36,1,
0,-0.07,1.03,-3.6,-1.22,-5.8,-41,38,29,1,
0.01,-0.07,1.02,6.35,1.89,-1.28,-39,37,34,1,
0.02,-0.09,1,7.81,1.53,-2.81,-39,39,32,1,
0.02,-0.11,0.99,1.95,0.67,-1.34,-41,37,36,1,
0,-0.09,1.03,-9.16,-2.81,-1.16,-41,37,31,1,
0.01,-0.07,1.01,-8.06,-0.73,0.37,-41,40,31,1,
0,-0.05,1.01,-10.74,-0.31,-3.85,-38,39,33,1,
0,-0.04,1.02,-2.01,0.49,-1.04,-38,38,31,1,
0,-0.04,1.01,-1.71,0.12,-0.37,-39,38,33,1,
0,-0.04,1.01,-0.43,0.18,-0.24,-37,40,28,1,
0,-0.03,1.01,-0.92,-0.12,-0.31,-36,36,33,1,
0,-0.03,1.01,-0.43,0.06,-0.31,-37,38,33,1,
0,-0.03,1.01,-0.92,-0.06,-0.31,-38,37,31,1,
0,-0.04,1.01,0,0.06,-0.61,-36,38,31,1,
0,-0.03,1.01,0.24,0,-0.92,-38,38,34,1,
0,-0.03,1.01,0.06,0.12,-0.73,-37,37,30,1,
0.01,-0.03,1.01,0.31,-0.37,-2.08,-36,35,33,1,
0,-0.03,1.01,-0.31,-0.06,0.06,-37,36,34,1,
0.01,-0.04,1.01,1.16,-0.24,-2.87,-38,39,29,1,
0,0,4       1.0,1       1.34,-0.12,-1.59,-37,36,31,1,
0,-0.04,1.01,2.81,-0.24,-1.53,-37,35,31,1,
0,-0.04,1.01,1.16,0.06,-0.92,-37,37,33,1,
0,-0.05,1.01,0.67,0.18,-0.85,-36,38,37,1,
0,-0.05,1.01,-0.18,-0.06,-0.55,-39,38,31,1,
0,-0.05,1.01,-0.31,-0.37,-0.43,-37,36,31,1,
0,-0.04,1.01,0.12,0.24,-0.18,-37,39,32,1,
0,-0.05,1.01,0.06,0.12,-0.12,-37,38,31,1,
0,-0.05,1.01,0.24,0.06,-0.24,-38,38,36,1,
0,0,4       1.0,1       0.06,0.12,-0.18,-35,37,31,1,
0,-0.04,1.01,-0.12,0.12,-0.18,-39,38,30,1,
0,-0.04,1.01,-0.06,0.37,0,-39,37,34,1,
0,-0.04,1.01,0.12,-0.06,0.37,-36,38,36,1,
0,0,4       1.0,1       0.00,0.06,0.31,-36,39,33,1,
0,-0.05,1.01,-0.61,0.12,-0.12,-38,39,30,1,
0,-0.04,1.01,-0.06,-0.31,0.67,-38,37,39,1,
0,-0.05,1.01,-0.67,-0.06,0.67,-38,38,31,1,
0,-0.04,1.01,-0.18,0.24,-0.12,-36,36,34,1,
0,-0.04,1.01,0.06,0.06,-0.18,-38,39,31,1,
0,-0.05,1.01,-0.55,-0.06,-0.43,-35,39,30,1,
0,0,4       1.0,1       -0.98,0,-0.12,-37,38,30,1,
0,0,4       1.0,1       -0.24,-0.06,-0.49,-36,36,37,1,
0,-0.04,1.01,-2.26,0.31,0.24,-39,39,33,1,
0,-0.04,1.01,0.24,0.12,-0.06,-36,38,31,1,
0,-0.04,1.01,0.61,0.06,0.24,-36,38,36,1,
0,-0.04,1.01,2.14,-0.31,0.24,-36,36,33,1,
0,-0.04,1.01,3.42,-0.12,-0.18,-38,38,30,1,
0,0,5       1.0,1       1.71,0.49,-1.89,-38,37,37,1,
0,-0.04,1.01,-1.59,0.18,-0.18,-36,39,31,1,
0.01,-0.03,1.02,-3.36,-1.16,0.24,-36,40,31,1,
0,-0.03,1.01,-0.61,0.43,1.28,-35,39,33,1,
0,-0.03,1.01,-0.12,0.18,0.43,-37,38,31,1,
0.01,-0.03,1.01,-0.06,0.12,1.89,-35,38,37,1,
0,-0.03,1.01,0.43,-0.55,10.13,-36,38,29,1,
0.01,-0.03,1.01,0,0.24,2.08,-38,38,37,1,
0.01,-0.03,1.01,-0.24,0.24,0.98,-39,38,35,1,
0,-0.03,1.01,0.12,-0.12,2.26,-38,38,32,1,
0.01,-0.03,1.01,-0.18,0.12,1.71,-37,38,35,1,
0.01,-0.03,1.01,-0.12,0.18,0,-37,39,35,1,
0,-0.03,1.01,-0.85,-0.12,-0.79,-38,37,34,1,
0,-0.03,1.01,-0.12,0.06,-0.31,-39,37,34,1,
0,-0.03,1.01,0.18,0.06,-0.18,-37,36,32,1,
0.01,-0.03,1.01,-0.12,0,-0.24,-38,38,30,1,
0,-0.03,1.01,-0.12,0.12,-0.37,-36,38,38,1,
0.01,-0.04,1.01,0.12,0.12,-0.12,-40,37,33,1,
0,-0.03,1.01,0.06,0.18,-0.24,-38,37,32,1,
0,-0.03,1.01,0.06,0.06,-0.18,-36,38,34,1,
0.01,-0.03,1.01,0,0.18,0,-38,38,31,1,
0.01,-0.03,1.01,0,0.06,-0.12,-38,38,31,1,
0.01,-0.03,1.01,0,0.12,-0.12,-38,39,33,1,
0.01,-0.03,1.01,0.06,0.06,-0.18,-38,38,31,1,
0,-0.03,1.01,-0.06,0,-0.12,-36,36,32,1,
0,-0.03,1.01,-0.06,0.12,-0.12,-39,38,34,1,
0,-0.03,1.01,0,0.06,-0.12,-38,39,33,1,
0.01,-0.03,1.01,-0.12,0.06,-0.18,-36,38,30,1,
0,-0.03,1.01,0,0,-0.06,-38,39,39,1,
0,-0.03,1.01,0.06,0.06,-0.12,-36,38,34,1,
0,-0.03,1.01,0.06,0,-0.12,-38,38,34,1,
0.01,-0.03,1.01,-0.12,0.12,-0.18,-39,38,28,1,
0,-0.03,1.01,0.31,0.12,-0.18,-38,39,32,1,
0.01,-0.03,1.01,-0.06,0.12,-0.12,-38,39,36,1,
0.01,-0.03,1.01,0.12,0.31,0,-39,38,32,1,
0,-0.03,1.01,-1.71,-0.61,-0.24,-38,38,35,1,
0,-0.03,1.01,0.61,0,-0.18,-38,36,38,1,
0.01,-0.03,1.01,0.43,0.06,-0.12,-36,40,31,1,
0.01,-0.03,1.01,-0.24,0.12,-0.06,-38,39,34,1,
0.01,-0.03,1.01,0.18,0.06,-0.12,-38,36,37,1,
0,-0.03,1.01,0.55,0.18,0.49,-41,39,35,1,
0.01,-0.03,1.01,-0.24,0.18,-0.06,-39,38,33,1,
0.01,-0.03,1.01,-0.31,0.06,-0.24,-37,38,28,1,
0.01,-0.03,1.01,0.12,0.06,-0.06,-38,38,34,1,
0.01,-0.03,1.01,0.06,-0.06,-0.18,-39,39,36,1,
0,-0.03,1.01,0.18,0,-0.24,-38,39,30,1,
0.01,-0.03,1.01,0.18,0.06,-0.12,-39,39,33,1,
0,-0.03,1.01,0.31,0.06,-0.12,-38,38,33,1,
0,-0.03,1.01,-0.61,-0.06,-0.18,-40,36,29,1,
0.01,-0.03,1.01,0,0.18,-0.12,-40,39,29,1,
0,-0.03,1.01,0.06,0.06,-0.24,-39,36,32,1,
0.01,-0.03,1.01,0,0,-0.06,-39,38,32,1,
0.01,-0.03,1.01,-0.06,0.06,-0.12,-38,37,36,1,
0,-0.03,1.01,-0.24,-0.06,-0.06,-38,37,31,1,
0.01,-0.03,1.01,0.12,0.06,-0.12,-34,39,36,1,
0.01,-0.03,1.01,0.24,0.31,-0.18,-38,38,31,1,
0,-0.03,1.01,-0.12,-0.06,-0.06,-38,38,36,1,
0.01,-0.03,1.01,0,0.24,-0.18,-36,37,35,1,
0.01,-0.03,1.01,0.18,0.12,-0.12,-36,38,31,1,
0.01,-0.03,1.01,-0.06,0.06,-0.18,-38,38,31,1,
0,-0.03,1.01,0,0.06,-0.18,-38,38,34,1,
0.01,-0.03,1.01,-0.06,0.18,-0.18,-39,37,29,1,
0.01,-0.03,1.01,0,0.06,-0.24,-37,38,31,1,
0.01,-0.03,1.01,0,0.06,-0.24,-38,36,29,1,
0.01,-0.03,1.01,0.12,0.06,-0.06,-36,39,29,1,
0.01,-0.03,1.01,-0.06,0.06,-0.18,-37,38,32,1,
0,-0.03,1.01,-0.06,0.12,0,-37,37,37,1,
0.01,-0.03,1.01,0,0.06,-0.06,-38,36,33,1,
0,-0.03,1.01,-0.06,0.06,-0.18,-38,39,31,1,
0.01,-0.03,1.01,0,0,-0.12,-38,39,33,1,
0.01,-0.03,1.01,-0.18,0.06,-0.06,-36,40,32,1,
0,-0.03,1.01,-0.06,0.12,-0.12,-37,37,29,1,
0,-0.03,1.01,-0.12,0.06,-0.12,-41,41,33,1,
0.01,-0.03,1.01,0.24,0.24,-0.18,-39,40,33,1,
0,-0.03,1.01,-0.06,-0.12,-0.18,-38,39,38,1,
0,-0.03,1.01,-0.12,-0.06,-0.18,-37,38,34,1,
0.01,-0.04,1.01,0.06,0.06,-0.06,-39,38,36,1,
0,-0.03,1.01,0,0.12,-0.18,-39,36,29,1,
0,-0.03,1.01,0.12,0.06,-0.06,-39,38,31,1,
0,-0.03,1.01,0.06,0.06,-0.18,-38,37,33,1,
0,-0.03,1.01,0.06,0.18,0.06,-38,38,34,1,
0,-0.03,1.01,-0.06,0.12,-0.12,-40,39,35,1,
0.01,-0.03,1.01,-0.06,0,-0.12,-39,36,35,1,
0.01,-0.03,1.01,0,0.12,-0.18,-39,41,35,1,
0,-0.03,1.01,-0.06,0,-0.18,-39,39,35,1,
0,-0.03,1.01,-0.06,0.06,-0.12,-38,39,34,1,
0.01,-0.03,1.01,-0.06,0.06,-0.06,-38,35,33,1,
0,-0.03,1.01,0.06,0.12,-0.18,-38,38,32,1,
0,-0.03,1.01,0.12,0,-0.12,-36,38,33,1,
0,-0.03,1.01,-0.12,0.12,-0.12,-36,40,34,1,
0,-0.03,1.01,0,0.24,-0.06,-38,40,35,1,
0,-0.03,1.01,0,0.12,-0.06,-39,39,31,1,
0.01,-0.03,1.01,-0.12,0.12,-0.18,-37,38,37,1,
0.01,-0.03,1.01,0,0.06,-0.12,-35,40,36,1,
0.01,-0.03,1.01,-0.12,0,-0.12,-38,37,33,1,
0,-0.03,1.01,-0.31,0.12,-0.24,-39,37,33,1,
0.01,-0.03,1.01,0.06,0.24,-0.12,-39,38,35,1,
0,-0.03,1.01,0.31,0.12,-0.31,-36,36,29,1,
0.01,-0.03,1.01,-0.06,0.37,0.06,-38,36,33,1,
0,-0.03,1.01,-0.12,-0.12,0,-41,35,29,1,
0,-0.03,1.01,0.18,0,0.12,-37,37,35,1,
0.01,-0.03,1.01,0.43,-0.06,0.06,-38,37,29,1,
0,-0.03,1.01,-0.06,0,-0.49,-37,37,27,1,
0,-0.04,1.01,3.97,-0.12,-1.34,-40,39,29,1,
0.01,-0.04,1.01,0.73,0.49,0.49,-39,37,34,1,
0.02,-0.03,1.01,1.34,-0.43,3.05,-40,39,33,1,
-0.01,0,5       1.0,1       -1.04,0.37,8.61,-40,38,32,1,
0,-0.04,1.01,1.22,0.37,-0.12,-41,36,34,1,
0,-0.04,1.01,-0.31,0.06,-0.12,-38,38,29,1,
0,-0.04,1.01,0.92,0.55,-0.67,-39,37,34,1,
0,-0.05,1.01,-0.55,0.43,-5.62,-39,38,33,1,
0,-0.05,1.01,0,-0.12,-1.28,-39,37,29,1,
0,-0.05,1.01,-0.18,0.06,-0.12,-41,40,31,1,
0,-0.04,1.01,-1.28,0.85,-0.31,-41,38,31,1,
0,-0.04,1.01,-1.16,0.37,-0.06,-38,38,33,1,
0,-0.04,1.01,-0.37,0.24,-0.37,-39,38,31,1,
0,-0.04,1.01,0.98,-0.06,-0.43,-37,39,32,1,
0,-0.04,1.01,-1.4,0.37,0.85,-39,38,34,1,
0,-0.04,1.01,1.22,-0.43,0.12,-39,39,36,1,
0,-0.04,1.01,-0.85,0.18,0,-40,38,31,1,
0,-0.04,1.01,0.31,0.06,-0.24,-38,39,34,1,
0,-0.04,1.01,-0.12,0.37,-0.24,-39,38,32,1,
0.01,-0.04,1.01,0,0.31,-0.37,-38,38,34,1,
0,0,4       1.0,1       0.85,-0.73,-1.04,-39,41,34,1,
0,-0.03,1.01,-0.06,-0.18,-0.18,-36,39,29,1,
0,-0.04,1.01,-0.12,0.06,-0.18,-39,38,36,1,
0,-0.04,1.01,1.1,-0.55,0.73,-39,37,30,1,
0,-0.04,1.01,0.79,-1.46,-0.12,-38,38,35,1,
0,-0.04,1.01,1.28,-1.22,-0.37,-39,37,34,1,
0,0,4       1.0,1       -0.49,1.28,-0.43,-39,40,33,1,
0,-0.04,1.01,0.31,0.61,0,-39,38,30,1,
0,0,4       1.0,1       0.73,-0.12,-0.79,-39,35,32,1,
0,-0.04,1.01,0.49,3.23,-0.67,-41,39,36,1,
0,0,5       1.0,1       8.00,0.92,-1.16,-38,37,31,1,
0,-0.05,1.01,-7.2,-0.85,0.55,-41,39,33,1,
0,0,3       1.0,2       -10.74,-0.9,2       0.00,-39,38,35,1,
0.01,-0.03,1.01,-6.16,4.7,1.28,-39,37,36,1,
0.02,-0.06,0.99,7.57,-8.97,-1.95,-38,36,34,1,
0,-0.05,1.01,-6.84,-1.71,0.55,-40,39,32,1,
0,0,2       1.0,0       -9.64,1.46,-0.55,-36,36,34,1,
0,-0.03,1.01,2.2,-1.28,0.12,-39,37,32,1,
0,-0.03,1.01,-3.05,2.14,1.71,-39,38,33,1,
0.02,0,0.96,5.62,5,1.46,-39,35,31,1,
0.01,-0.03,1.02,1.53,-1.77,-0.55,-40,37,36,1,
0,0,3       1.0,1       1.77,-2.38,0.24,-37,36,31,1,
-0.01,0,4       1.0,1       2.32,-3.17,-1.22,-36,39,34,1,
-0.02,0,4       1.0,2       -2.26,-3.42,-0.61,-40,38,34,1,
-0.01,0,4       1.0,2       -8.06,11.96,-0.12,-39,39,29,1,
0.01,-0.03,1.01,-3.78,7.2,-1.53,-36,36,29,1,
0.01,-0.02,1.02,4.33,-0.31,-8.73,-40,35,29,1,
0,-0.05,1.01,-5.13,-2.5,-0.37,-39,36,31,1,
0,0,4       1.0,1       -3.72,0.79,0.61,-38,38,32,1,
0.04,-0.03,1.02,-5.25,5.49,-0.67,-39,36,36,1,
0.01,-0.03,1.01,-0.98,0.79,0.06,-38,38,32,1,
0,-0.04,1.01,1.34,-0.49,-0.55,-40,38,34,1,
0.02,-0.03,1.01,-1.83,1.46,6.1,-41,37,33,1,
0.01,-0.03,1.01,4.88,-4.52,0.67,-37,37,30,1,
0.01,-0.03,1.01,0.37,0,-0.12,-38,37,33,1,
0.01,-0.04,1.01,0,-0.06,0.06,-37,38,30,1,
-0.01,0,3       1.0,1       0.18,-0.31,-4.03,-39,38,34,1,
0,-0.03,1.01,0,0.18,-0.43,-38,38,36,1,
0.01,-0.03,1.01,0.18,-0.06,0.06,-40,36,34,1,
0,0,0       1.0,1       0.18,-0.24,1.59,-38,37,31,1,
0.01,-0.04,1.01,0,0.12,-0.24,-37,40,32,1,
-0.02,0,1.01,-0.18,0.12,-0.18,-39,38,30,1,
0,-0.03,1.01,0.06,0.06,-0.06,-39,38,33,1,
0.01,-0.04,1.01,-0.12,0,-0.06,-38,37,36,1,
-0.01,0,1.01,0.18,0.49,-0.61,-39,38,30,1,
0.01,-0.03,1.01,0,0.12,0.12,-37,37,29,1,
-0.01,0,1.01,0,0.31,0.18,-37,37,32,1,
0,-0.04,1.01,0,0.18,-0.18,-39,38,32,1,
0.01,-0.08,1.02,-0.12,0,0,-39,38,32,1,
0,-0.03,1.01,-0.06,0.24,0.24,-40,37,36,1,
0.01,-0.03,1.01,0.24,0.18,-0.55,-39,36,31,1,
0,-0.04,1.01,-0.12,0.06,-0.18,-39,37,32,1,
0,-0.04,1.01,-0.12,0.12,-0.12,-42,38,29,1,
0,-0.04,1.01,-0.18,0.06,-0.06,-39,36,27,1,
0.01,-0.17,1.03,0.37,0.18,-1.22,-39,38,32,1,
0,0,0       1.0,1       -0.18,0.18,0.06,-38,38,34,1,
0,0,5       1.0,2       -0.18,0.37,-0.12,-38,38,34,1,
0,0,4       1.0,1       -0.18,-0.18,0.18,-36,37,32,1,
0.01,-0.05,1.01,0.06,-0.06,-0.06,-38,37,30,1,
0,-0.02,1.01,0.18,0.37,-0.31,-37,38,31,1,
0,-0.02,1.01,0,0.06,-0.06,-39,38,29,1,
0.03,-0.1,1.01,-0.31,-0.18,0.06,-39,37,38,1,
0,-0.02,1.01,0,0.18,-0.18,-37,38,31,1,
0,0,6       1.0,2       -0.06,0.43,-0.43,-39,39,33,1,
0,0,1       1.0,1       -0.37,0.24,-0.06,-38,38,34,1,
0,0,1.01,-0.06,0.06,-0.18,-38,38,30,1,
0.01,-0.06,1.01,0.12,-0.12,-0.31,-39,36,34,1,
0,-0.04,1.01,0,0.18,-0.18,-41,38,32,1,
-0.02,0.01,1.01,0.37,0.49,-0.31,-35,39,33,1,
0,-0.03,1.01,-0.12,0.18,0.06,-38,37,36,1,
0,-0.02,1.01,0.06,-0.31,0.24,-41,38,31,1,
0,-0.05,1.01,0,0.12,-0.18,-39,39,33,1,
0.01,-0.04,1.01,0,0.06,-0.24,-39,38,33,1,
0,-0.04,1.01,0,0.12,-0.12,-36,37,31,1,
0,-0.04,1.01,0,0.18,-0.18,-38,38,33,1,
0,-0.04,1.01,-0.06,0.12,-0.18,-36,39,32,1,
0,-0.04,1.01,-0.06,0.18,-0.18,-39,41,33,1,
0,-0.03,1.01,-0.06,0,-0.12,-40,37,32,1,
0,-0.04,1.01,-0.18,0.18,-0.24,-38,36,31,1,
0,-0.04,1.01,0.18,0.12,-0.18,-37,39,34,1,
0.01,-0.03,1.01,-0.31,0.37,-0.24,-37,38,34,1,
0.01,-0.03,1.01,-0.31,0.12,-0.18,-40,36,36,1,
0,-0.03,1.01,-0.18,0.12,-0.18,-38,36,32,1,
0,-0.03,1.01,-0.12,0.18,-0.12,-38,36,32,1,
0.01,-0.03,1.01,0,0.06,-0.12,-39,36,33,1,
0,-0.03,1.01,-0.06,0,-0.06,-38,38,27,1,
0.01,-0.03,1.01,-0.12,0.12,-0.18,-39,38,31,1,
0.01,-0.03,1.01,-0.06,0.12,-0.18,-40,38,32,1,
0.01,-0.03,1.01,-0.12,0.12,-0.31,-38,38,31,1,
0,-0.03,1.01,-0.06,0.06,-0.12,-37,36,36,1,
0.01,-0.03,1.01,0,0.06,-0.18,-39,37,32,1,
0.01,-0.03,1.01,-0.06,0.12,-0.12,-37,37,35,1,
0,-0.03,1.01,0,0.12,-0.06,-38,37,31,1,
0.01,-0.03,1.01,0,0,-0.18,-38,38,34,1,
0.01,-0.03,1.01,0,0.18,-0.18,-37,37,35,1,
0,-0.03,1.01,0.06,0.06,-0.06,-38,37,34,1,
0.01,-0.03,1.01,-0.06,0.12,-0.12,-39,39,33,1,
0.01,-0.03,1.01,-0.06,0.12,0,-40,39,32,1,
0,-0.03,1.01,-0.06,0.06,-0.12,-37,38,33,1,
0.01,-0.03,1.01,0,0.12,-0.06,-37,38,36,1,
0.01,-0.03,1.01,-0.06,0.12,-0.12,-38,39,38,1,
0.01,-0.03,1.01,-0.06,0.12,-0.12,-38,38,31,1,
0.01,-0.03,1.01,0,0.06,-0.18,-39,37,29,1,
0.01,-0.03,1.01,-0.06,0.06,-0.12,-38,38,29,1,
0.01,-0.03,1.01,0,0.12,-0.18,-39,38,35,1,
0.01,-0.03,1.01,0.06,0.12,-0.18,-37,39,31,1,
0.01,-0.03,1.01,0,0,-0.12,-37,39,31,1,
0,-0.03,1.01,0,0.06,-0.12,-39,38,32,1,
0,-0.03,1.01,-0.06,0.12,-0.12,-38,37,29,1,
0.01,-0.03,1.01,-0.06,0.12,-0.06,-36,36,35,1,
0.01,-0.03,1.01,-0.06,-0.06,-0.18,-36,39,33,1,
0.01,-0.03,1.01,0,0.12,-0.12,-39,38,33,1,
0.01,-0.03,1.01,-0.12,0.06,-0.18,-40,39,33,1,
0.01,-0.03,1.01,0,0,-0.06,-35,37,29,1,
0.01,-0.03,1.01,-0.06,0.12,-0.18,-37,38,33,1,
0.01,-0.03,1.01,0,0.12,-0.12,-40,37,35,1,
0.01,-0.03,1.01,0,0.12,-0.24,-38,41,34,1,
0.01,-0.03,1.01,-0.06,0.12,-0.12,-38,38,34,1,
0.01,-0.03,1.01,0,0.06,0,-36,38,32,1,
0,-0.03,1.01,0,0.12,-0.24,-39,36,33,1,
0.01,-0.03,1.01,0.06,0,-0.37,-38,35,32,1,
0.01,-0.03,1.01,0.12,-0.06,-0.12,-38,38,31,1,
0.01,-0.03,1.01,-0.06,0.18,-0.24,-36,38,29,1,
0.01,-0.03,1.01,-0.06,0.06,-0.12,-36,38,32,1,
0.01,-0.03,1.01,0.06,0.12,-0.18,-37,39,31,1,
0.01,-0.03,1.01,0,0.12,-0.12,-38,38,30,1,
0.01,-0.03,1.01,-0.06,0.18,-0.12,-39,38,31,1,
0.01,-0.03,1.01,0,0.06,-0.31,-38,35,32,1,
0,-0.03,1.01,-0.06,0.12,-0.73,-38,37,31,1,
0.02,-0.05,1.01,-0.06,0.18,-3.97,-38,38,32,1,
0,-0.03,1.01,0,0.06,-0.37,-36,39,34,1,
0.01,-0.03,1.01,0,0.06,-0.61,-37,39,34,1,
0,-0.03,1.01,-0.06,0.12,-0.85,-39,38,26,1,
0.01,-0.03,1.01,-0.06,0.12,-0.06,-38,38,35,1,
0,-0.03,1.01,-0.06,0.18,-2.75,-37,39,32,1,
0.01,-0.03,1.01,-0.12,0.12,-3.05,-38,38,35,1,
0,-0.03,1.01,0,0.06,-0.61,-38,39,34,1,
0,-0.03,1.01,0,0.06,-0.18,-38,38,30,1,
0,-0.03,1.01,-0.06,0,-0.37,-38,38,29,1,
0,-0.02,1.01,-0.12,0,0.06,-36,40,29,1,
0.01,-0.03,1.01,0,0.12,-0.18,-37,38,28,1,
0.01,-0.03,1.01,0.12,0.06,-0.18,-38,38,33,1,
0,-0.03,1.01,0,0.06,-0.12,-35,38,34,1,
0,-0.03,1.01,0.06,0.06,-0.18,-37,37,34,1,
0.01,-0.03,1.01,0.24,0,-0.24,-39,38,31,1,
0.01,-0.03,1.01,0.49,-0.06,-0.24,-36,38,32,1,
0.01,-0.03,1.01,0.12,0.12,-0.18,-39,38,28,1,
-0.01,0,2       1.0,1       -0.24,-0.12,-0.67,-37,36,28,1,
0.01,-0.03,1.01,0,0.18,0.12,-38,36,31,1,
0,-0.03,1.01,0,0.18,-0.37,-40,40,35,1,
0,-0.03,1.01,-0.31,-0.06,-0.49,-37,38,28,1,
0.01,-0.03,1.01,-0.55,0.43,-0.24,-36,38,33,1,
0,-0.03,1.01,-3.42,-2.2,0.49,-39,39,32,1,
0,0,2       1.0,1       -2.81,-2.2,-0.67,-38,37,31,1,
0.01,-0.03,1.02,5.43,-3.72,-3.3,-37,39,30,1,
0,-0.03,1.01,-1.46,2.01,-1.22,-39,39,31,1,
0.01,-0.02,1.02,-3.54,5.55,2.01,-38,39,31,1,
0.02,-0.01,1,-7.08,3.97,-1.83,-38,38,28,1,
0.03,-0.02,1.01,6.16,-0.61,-0.06,-36,36,29,1,
0.02,-0.03,1.02,-5.8,6.1,-1.71,-36,38,29,1,
0.03,-0.02,1,4.88,-2.01,1.65,-40,36,33,1,
0,0,5       1.0,6       -8.91,-27.5,9       -2.9,9       -36.0,0       39.0,0       34.0,0       1,
0.01,-0.03,1.01,1.53,-0.73,0.24,-38,38,29,1,
0,-0.03,1.01,-1.46,-0.79,-0.37,-39,38,36,1,
0.02,-0.01,1.01,-15.62,9.89,2.38,-37,36,33,1,
0.04,-0.02,1.01,0.06,15.75,-3.23,-36,36,36,1,
0,0,3       1.0,6       3.48,-16.11,-1.34,-38,35,37,1,
0,-0.03,1.02,0.18,-8.73,-1.46,-38,37,29,1,
-0.01,0,3       1.0,2       0.37,0.37,-0.12,-38,38,32,1,
-0.01,0,4       1.0,1       6.10,10.99,2.93,-38,37,36,1,
-0.01,0,6       1.0,2       9.64,-10.19,-3.6,-38,38,31,1,
-0.02,0,5       1.0,0       -7.45,0.73,1.1,-38,40,29,1,
-0.01,0,3       1.0,1       -2.32,4.76,1.04,-37,39,26,1,
0,0,4       1.0,2       5.31,6.84,1.16,-37,39,28,1,
0,0,4       1.0,1       1.46,-0.06,-0.06,-38,40,33,1,
-0.01,0,4       1.0,1       5.31,0.24,-0.92,-38,38,30,1,
0,0,5       1.0,1       -3.05,-0.79,0.43,-38,36,34,1,
0.01,-0.02,1,-3.42,3.42,-1.16,-37,38,32,1,
0.01,-0.03,1.02,13.92,7.87,1.1,-36,38,34,1,
-0.01,0,4       1.0,1       11.60,-4.82,-1.16,-39,36,32,1,
-0.01,0,6       1.0,1       10.07,-2.44,-0.73,-39,38,32,1,
-0.01,0,6       1.0,1       -12.39,-1.2,2       1.10,-38,40,30,1,
-0.01,0,2       1.0,1       -11.78,1.53,-2.14,-39,39,32,1,
0,0,3       1.0,4       26.43,5.86,0,-39,37,32,1,
0,0,5       1.0,1       -0.37,-0.24,-0.12,-39,36,29,1,
-0.01,0,2       1.0,3       -9.58,-3.36,0.06,-38,38,35,1,
-0.01,0,4       1.0,4       11.54,6.47,0.61,-36,39,29,1,
0,0,5       1.0,2       2.32,0.73,0.18,-38,37,35,1,
-0.01,0,2       1.0,2       -17.94,-5.1,9       0.12,-37,39,34,1,
0,-0.05,1,16.6,2.69,-1.22,-39,39,29,1,
0,-0.06,1.01,-9.77,-2.38,-0.24,-37,36,32,1,
0,-0.02,1,7.93,2.56,0.24,-36,39,31,1,
0,-0.06,1.01,10.13,0.18,-0.98,-36,39,32,1,
-0.01,0,3       1.0,1       -28.02,-8,0       -0.6,1       -38.0,0       37.0,0       31.0,0       1,
0,-0.03,1.02,5.62,8.85,1.77,-36,39,33,1,
0,0,5       1.0,0       -0.49,0.67,-0.24,-39,37,31,1,
-0.01,0,0       1.0,1       -2.56,-0.79,-0.67,-37,36,35,1,
0,-0.04,1.01,14.16,1.71,-0.73,-38,39,33,1,
-0.02,0,4       1.0,5       -38.02,-15,32       -6.,29       -37.,00       40.,00       34.,00       1,
-0.01,0,1       1.0,0       16.72,4.15,0.92,-36,35,34,1,
0,-0.04,1,-1.71,1.1,0.55,-35,38,30,1,
-0.01,0,0       1.0,0       -6.96,-0.31,-0.43,-35,36,33,1,
-0.01,0,5       1.0,4       10.01,7.32,0.67,-37,36,33,1,
-0.01,0,5       1.0,4       -15.69,-3,5       0.49,-35,38,33,1,
0,0,0.97,21.06,9.16,0.43,-34,36,34,1,
0.01,-0.03,1.01,0.37,0.12,-0.18,-39,36,33,1,
0.01,-0.03,1.01,0.24,0,0.67,-37,39,29,1,
0.01,-0.02,1.02,-1.1,4.88,3.36,-36,38,37,1,
0.01,-0.03,1.02,1.46,-6.41,-0.92,-40,36,32,1,
0,-0.03,1.01,0.43,-0.06,-0.43,-38,38,33,1,
0,-0.04,1.02,-3.48,2.5,0.61,-36,38,36,1,
0.03,-0.01,1,-1.22,-12.02,-1.71,-38,36,32,1,
0.01,-0.03,1.01,0.67,-0.24,-0.49,-38,38,29,1,
0.01,-0.03,1.01,0.24,0,-0.12,-39,38,33,1,
0,-0.03,1.01,0.61,-0.24,0.18,-38,39,31,1,
0.01,-0.03,1.01,0.18,0.24,0.61,-35,39,32,1,
0.01,-0.04,1.01,0.06,0.06,0,-35,37,34,1,
0,-0.03,1.01,-0.12,0.18,-0.24,-36,37,37,1,
0.01,-0.03,1.01,-0.12,0.31,-0.24,-37,39,34,1,
0.01,-0.03,1.01,-0.12,-0.49,-0.24,-37,39,33,1,
0.01,-0.03,1.01,-0.06,0.43,-0.37,-38,37,35,1,
0,-0.03,1.01,-0.24,0.18,-0.12,-39,39,30,1,
0.01,-0.03,1.01,-0.37,0.24,0.12,-36,39,32,1,
0.01,-0.03,1.01,0.12,0.12,-0.31,-38,38,30,1,
0.01,-0.03,1.01,-0.12,0.12,-0.06,-38,37,31,1,
0.01,-0.03,1.01,0,0,-0.31,-38,36,36,1,
0.01,-0.03,1.01,-0.12,0.06,-0.18,-36,37,31,1,
0.01,-0.03,1.01,-0.06,0.06,-0.31,-38,37,33,1,
0.01,-0.03,1.01,0,0.06,-0.18,-38,38,31,1,
0.01,-0.03,1.01,-0.18,0,-0.12,-38,38,31,1,
0.01,-0.03,1.01,-0.12,0.12,0,-40,37,37,1,
0.01,-0.03,1.01,0.12,0.06,0,-36,36,32,1,
0.01,-0.03,1.01,0.18,0.06,-0.12,-35,37,32,1,
0.01,-0.03,1.01,0.12,0,-0.12,-37,36,34,1,
0.01,-0.03,1.01,0.06,0.18,-0.18,-36,38,31,1,
0.01,-0.03,1.01,-0.06,0.06,0,-39,38,36,1,
0.01,-0.03,1.01,0.06,0.06,-0.24,-36,37,36,1,
0.01,-0.03,1.01,-0.06,0.12,-0.06,-37,39,30,1,
0.01,-0.03,1.01,-0.06,0.06,-0.18,-36,38,34,1,
0.01,-0.03,1.01,0,0.06,-0.06,-36,36,31,1,
0.01,-0.03,1.01,0,0.12,-0.24,-38,41,32,1,
0.01,-0.03,1.01,-0.18,0.06,-0.12,-36,38,31,1,
0.01,-0.03,1.01,0,0.06,-0.06,-36,38,33,1,
0.01,-0.03,1.01,-0.12,0.18,-0.18,-38,39,32,1,
0.01,-0.03,1.01,-0.06,0.18,-0.12,-36,41,35,1,
0.01,-0.03,1.01,0,0.12,-0.12,-37,38,28,1,
0.01,-0.03,1.01,-0.06,0.06,-0.18,-37,40,31,1,
0.01,-0.03,1.01,0,0.06,-0.18,-37,38,32,1,
0.01,-0.03,1.01,-0.06,0.06,-0.12,-39,35,33,1,
0.01,-0.03,1.01,0,0.06,-0.24,-39,38,29,1,
0.01,-0.03,1.01,-0.12,0.18,-0.12,-38,36,34,1,
0.01,-0.03,1.01,0,0,-0.12,-35,37,31,1,
0.01,-0.03,1.01,-0.06,0.06,-0.12,-36,37,32,1,
0.01,-0.03,1.01,0,0.12,-0.12,-36,37,31,1,
0.01,-0.03,1.01,-0.06,0,-0.12,-38,36,36,1,
0.01,-0.03,1.01,0.06,0.06,0.31,-38,37,36,1,
0.01,-0.03,1.01,0,0,0.37,-34,39,27,1,
0.01,-0.03,1.01,0.06,0.06,-0.24,-36,39,30,1,
0.01,-0.03,1.01,-0.06,0.18,0,-37,39,31,1,
0.01,-0.03,1.01,0,0.12,-0.12,-39,38,31,1,
0.01,-0.03,1.01,0,0.12,-0.18,-38,39,33,1,
0.01,-0.03,1.01,0,0.12,-0.06,-37,38,33,1,
0.01,-0.03,1.01,0,0.12,-0.12,-39,38,31,1,
0.01,-0.03,1.01,-0.06,0.06,-0.12,-34,36,34,1,
0.01,-0.03,1.01,-0.06,-0.06,-0.06,-38,39,30,1,
0.01,-0.03,1.01,-0.12,0.06,-0.12,-37,35,30,1,
0.01,-0.03,1.01,0.06,0.12,-0.18,-38,37,29,1,
0.01,-0.03,1.01,0,0.12,-0.24,-38,39,31,1,
0.01,-0.03,1.01,0.12,0.12,-0.06,-37,37,33,1,
0.01,-0.03,1.01,0.06,0.12,-0.18,-37,37,31,1,
0.01,-0.03,1.01,0.06,0.06,-0.18,-37,39,34,1,
0.01,-0.03,1.01,0,0.12,-0.12,-36,38,33,1,
0.01,-0.03,1.01,0,0.06,-0.18,-36,38,30,1,
0.01,-0.03,1.01,-0.06,0.12,-0.24,-37,38,33,1,
0.01,-0.03,1.01,-0.06,0.06,-0.12,-38,38,33,1,
0.01,-0.03,1.01,0,0.06,###############################################################################################################################################################################################################################################################,-38,36,32,1,
0.01,-0.03,1.01,-0.06,0.06,-0.18,-38,38,36,1,
0.01,-0.03,1.01,0.12,0,-0.18,-38,38,29,1,
0,-0.03,1.01,-0.06,0.12,-0.24,-39,39,33,1,
0.01,-0.03,1.01,0,0.12,-0.18,-37,38,33,1,
0.01,-0.03,1.01,0,0.12,-0.24,-36,36,31,1,
0.01,-0.03,1.01,0,0.06,0.06,-36,36,33,1,
0.01,-0.03,1.01,0,0,-0.18,-39,35,35,1,
0.01,-0.03,1.01,0.06,0.12,-0.24,-37,39,34,1,
0.01,-0.03,1.01,0.06,0,-0.12,-38,38,31,1,
0.01,-0.03,1.01,-0.06,0,-0.12,-38,36,33,1,
0.01,-0.03,1.01,0.06,0.06,-0.12,-37,38,33,1,
0.01,-0.03,1.01,-0.06,0.12,-0.24,-39,39,35,1,
0.01,-0.03,1.01,0,0.06,-0.06,-35,39,31,1,
0.01,-0.03,1.01,0,0,-0.18,-39,37,31,1,
0.01,-0.03,1.01,-0.06,0.12,-0.12,-38,37,33,1,
0.01,-0.03,1.01,0,0,-0.18,-37,36,35,1,
0.01,-0.03,1.01,0.06,0,-0.12,-36,36,31,1,
0.01,-0.03,1.01,0,0.12,-0.12,-36,37,33,1,
0,-0.03,1.01,-0.06,0.12,0,-39,35,32,1,
0.01,-0.03,1.01,0.06,0.06,-0.06,-37,38,29,1,
0.01,-0.03,1.01,0.06,0.18,-0.18,-38,37,31,1,
0.01,-0.03,1.01,0,0.06,-0.06,-37,37,33,1,
0.01,-0.03,1.01,0,0.12,-0.18,-36,38,29,1,
0.01,-0.03,1.01,0.12,0.06,-0.24,-38,38,33,1,
0.01,-0.03,1.01,0.06,0.06,0,-35,39,34,1,
0.01,-0.03,1.01,-0.06,0.12,-0.24,-36,38,30,1,
0.01,-0.03,1.01,-0.12,0.06,-0.12,-40,39,32,1,
0.01,-0.03,1.01,-0.06,0.12,-0.18,-37,37,31,1,
0.01,-0.03,1.01,0,0.06,-0.12,-39,35,33,1,
0.01,-0.03,1.01,0,0,-0.18,-37,39,34,1,
0.01,-0.03,1.01,0.06,0.06,-0.12,-38,38,36,1,
0.01,-0.03,1.01,0.06,0.12,-0.18,-38,39,31,1,
0.01,-0.03,1.01,0.12,0.06,-0.12,-38,37,35,1,
0.01,-0.03,1.01,0.06,0.06,-0.12,-36,38,29,1,
0.01,-0.03,1.01,-0.06,0.12,-0.18,-37,38,31,1,
0.01,-0.03,1.01,-0.06,0.18,-0.24,-38,37,34,1,
0.01,-0.03,1.01,-0.12,0.18,-0.18,-36,36,29,1,
0.01,-0.03,1.01,0.06,0.12,-0.12,-36,38,31,1,
0.01,-0.03,1.01,0.12,0.12,-0.06,-37,38,31,1,
0.01,-0.03,1.01,-0.06,0.12,-0.31,-38,38,33,1,
0.01,-0.03,1.01,-0.12,0.12,-0.06,-36,37,33,1,
0.01,-0.03,1.01,0,0.12,-0.24,-38,37,33,1,
0.01,-0.03,1.01,0.06,0.06,0,-35,37,31,1,
0.01,-0.03,1.01,0.06,0,-0.67,-38,36,32,1,
0.01,-0.03,1.01,-0.12,0.18,-0.12,-38,37,30,1,
0.01,-0.03,1.01,-0.06,0.12,-0.18,-38,36,33,1,
0.01,-0.03,1.01,0,0.06,-0.24,-36,37,36,1,
0.01,-0.03,1.01,0.06,0,-0.12,-38,36,34,1,
0.01,-0.03,1.01,0,0.06,-0.24,-36,37,29,1,
0.01,-0.03,1.01,-0.06,0.18,-0.24,-36,37,30,1,
0.01,-0.03,1.01,0.18,0.06,-0.12,-39,36,37,1,
-0.01,0,3       1.0,1       -0.12,0.18,-1.46,-37,38,28,1,
0.01,-0.03,1.01,-0.12,0.06,-0.18,-36,36,28,1,
0.01,-0.03,1.01,-0.06,0.12,-0.18,-37,38,33,1,
0.01,-0.03,1.01,0,0.12,-0.12,-36,38,37,1,
0.01,-0.03,1.01,0,0,-0.18,-40,37,36,1,
0.01,-0.03,1.01,0,0.06,-0.18,-37,39,33,1,
0.01,-0.03,1.01,-0.06,0.06,-0.12,-38,37,34,1,
0.01,-0.03,1.01,-0.12,0.18,-0.31,-37,38,35,1,
0.01,-0.03,1.01,0.06,0.06,-0.06,-39,38,32,1,
0.01,-0.03,1.01,0.06,0.06,-0.12,-37,37,27,1,
0.01,-0.03,1.01,0,0.12,-0.18,-39,41,32,1,
0.01,-0.03,1.01,0,0.12,-0.12,-35,39,31,1,
0.01,-0.03,1.01,-0.12,0.06,-0.18,-36,36,32,1,
0.01,-0.03,1.01,0.06,0,-0.06,-36,37,31,1,
0.02,-0.03,1.01,-0.12,0.06,-0.92,-38,35,34,1,
0.01,-0.03,1.01,-0.06,0.12,-0.06,-38,38,34,1,
0.01,-0.03,1.01,-0.06,0.12,-0.12,-38,38,31,1,
0.01,-0.03,1.01,0,0.06,-0.12,-36,38,24,1,
0.01,-0.03,1.01,0,0.06,-0.12,-35,38,33,1,
0.01,-0.03,1.01,0.06,0.06,-0.12,-38,39,32,1,
0.01,-0.03,1.01,-0.06,0.06,-0.18,-38,38,33,1,
0.01,-0.03,1.01,-0.06,0.12,-0.12,-37,38,34,1,
0.01,-0.03,1.01,-0.06,0.12,-0.24,-37,35,33,1,
0.01,-0.03,1.01,-0.06,0.12,-0.12,-35,35,31,1,
0.01,-0.03,1.01,0.06,0.06,-0.12,-36,38,32,1,
0.01,-0.03,1.01,-0.06,0.24,-2.93,-36,36,31,1,
0.01,-0.03,1.01,-0.06,0.06,-0.12,-37,39,34,1,
0.01,-0.03,1.01,-0.12,0.06,-0.18,-36,39,34,1,
0.01,-0.03,1.01,0,0.06,-0.18,-36,37,29,1,
0.01,-0.03,1.01,0,0.12,-0.18,-38,36,33,1,
0.01,-0.03,1.01,-0.06,0.18,-0.79,-38,36,32,1,
0.01,-0.03,1.01,0,0.06,-0.24,-37,38,33,1,
0.01,-0.03,1.01,-0.06,0.06,-0.12,-39,37,31,1,
0.01,-0.03,1.01,0,0,-0.12,-38,37,29,1,
0.01,-0.03,1.01,0,0.12,-0.18,-36,41,32,1,
0.01,-0.03,1.01,0,0.12,-0.24,-35,39,30,1,
0.01,-0.03,1.01,0,0.12,0,-36,37,34,1,
0.01,-0.03,1.01,0.06,0.12,-0.06,-38,37,31,1,
0.02,-0.03,1.01,0,0,-0.43,-38,37,33,1,
0.01,-0.03,1.01,-0.06,0.06,-0.06,-36,37,30,1,
0.01,-0.03,1.01,-0.06,0.06,-0.24,-36,37,36,1,
0.01,-0.03,1.01,-0.06,0.12,-0.12,-34,38,28,1,
0.01,-0.03,1.01,-0.06,0.12,-0.12,-35,35,34,1,
0.01,-0.03,1.01,0,0,-0.18,-38,38,31,1,
0.01,-0.03,1.01,0,0.12,-0.06,-38,39,36,1,
0.01,-0.03,1.01,-0.06,0,-0.12,-37,36,32,1,
0.01,-0.03,1.01,-0.06,0,0,-36,36,33,1,
0.01,-0.03,1.01,-0.06,0.06,-0.24,-36,36,29,1,
0.01,-0.03,1.01,0,0.06,-0.18,-37,39,33,1,
0.01,-0.03,1.01,-0.12,0.12,-0.24,-36,38,30,1,
0.01,-0.03,1.01,-0.06,0.06,-0.18,-39,38,29,1,
0.01,-0.03,1.01,-0.12,0.18,-0.12,-38,35,36,1,
0.01,-0.03,1.01,-0.06,0.06,-0.06,-35,40,37,1,
0.01,-0.03,1.01,0.12,-0.06,-0.06,-39,38,33,1,
0.01,-0.03,1.01,-0.06,0.06,-0.18,-38,38,31,1,
0.01,-0.03,1.01,-0.12,0.18,-0.24,-38,37,33,1,
0.01,-0.03,1.01,0,0.06,-0.24,-37,39,29,1,
0.01,-0.03,1.01,0.12,0.06,-0.12,-37,37,30,1,
0.01,-0.03,1.01,-0.06,0.06,-0.31,-37,38,29,1,
0.01,-0.03,1.01,-0.18,0.06,0.06,-35,39,31,1,
0.01,-0.03,1.01,-0.06,0,-0.24,-37,38,33,1,
0.01,-0.03,1.01,-0.06,0.12,-0.18,-36,37,31,1,
0.01,-0.03,1.01,-0.06,0.18,-0.24,-39,35,34,1,
0.01,-0.03,1.01,0.06,0.06,-0.12,-36,37,34,1,
0,-0.03,1.01,0,0.12,-0.31,-35,36,33,1,
0.01,-0.03,1.01,-0.12,0.12,-0.12,-36,38,30,1,
0.01,-0.03,1.01,0,0,-0.18,-36,37,30,1,
0,-0.03,1.01,-0.06,0.18,-0.06,-34,38,30,1,
0.01,-0.03,1.01,0.06,0.12,-0.06,-38,39,29,1,
0,-0.03,1.01,0.06,0.06,-0.06,-38,37,31,1,
0.01,-0.03,1.01,0.12,0.06,-0.18,-37,39,33,1,
0,-0.03,1.01,0.06,-0.06,-0.24,-35,37,29,1,
0.03,-0.04,1.01,0.12,0.18,-2.44,-35,35,29,1,
0,-0.03,1.01,0.12,0.06,-0.31,-38,37,35,1,
0.01,-0.03,1.01,-0.18,0.18,-0.24,-38,36,30,1,
0.01,-0.03,1.01,-0.06,0.06,-0.12,-36,38,33,1,
0.01,-0.03,1.01,0,0.12,-0.12,-38,36,29,1,
0.01,-0.03,1.01,0,0,-0.12,-37,37,32,1,
0.01,-0.03,1.01,0,0.12,-0.24,-39,39,32,1,
0.01,-0.03,1.01,0,0.12,-0.31,-34,37,31,1,
0.01,-0.03,1.01,-0.06,0.18,-0.18,-36,38,32,1,
0.01,-0.03,1.01,0.06,0.12,-0.12,-36,38,29,1,
0.01,-0.03,1.01,0.06,0,0,-36,36,32,1,
0.01,-0.03,1.01,0,0.12,-0.18,-35,35,34,1,
0.01,-0.03,1.01,-0.06,0,-0.12,-38,36,29,1,
0.01,-0.03,1.01,-0.06,0.06,-0.18,-39,35,31,1,
0.01,-0.03,1.01,0,0,-0.37,-37,38,32,1,
0.01,-0.03,1.01,-0.06,0.06,-0.06,-36,39,28,1,
0.01,-0.03,1.01,-0.06,0.18,-0.18,-37,37,27,1,
0.01,-0.03,1.01,-0.06,0.06,-0.12,-38,36,27,1,
0.01,-0.03,1.01,0.06,0,-0.18,-36,37,31,1,
0.01,-0.03,1.01,0,0.06,-0.24,-38,39,31,1,
0.01,-0.03,1.01,-0.06,0.12,-0.12,-38,36,33,1,
0.01,-0.03,1.01,-0.12,0.06,-0.24,-36,36,32,1,
0.01,-0.03,1.01,-0.12,0.12,-0.24,-37,39,31,1,
0.01,-0.03,1.01,0.06,0.06,-0.24,-35,37,29,1,
0.01,-0.03,1.01,-0.06,0.12,-0.18,-38,37,32,1,
0.01,-0.03,1.01,-0.06,0,-0.06,-38,36,30,1,
0.01,-0.03,1.01,-0.06,0.12,-0.18,-36,38,33,1,
0.01,-0.03,1.01,0,0.12,-0.24,-35,38,34,1,
0.01,-0.03,1.01,-0.06,0.06,-0.18,-40,38,30,1,
0.01,-0.03,1.01,-0.12,0.12,-0.31,-37,38,30,1,
0.01,-0.03,1.01,0,0,-0.12,-36,36,34,1,
0.01,-0.03,1.01,-0.06,0.12,-0.24,-36,36,33,1,
0.01,-0.03,1.01,-0.06,0.18,-2.08,-35,36,32,1,
0.01,-0.03,1.01,-0.06,0.12,-0.24,-36,35,35,1,
0.01,-0.03,1.01,0.06,0.12,0,-35,37,34,1,
0,-0.03,1.01,0,0.12,-0.18,-35,37,33,1,
0.01,-0.03,1.01,-0.06,0.18,-0.18,-38,36,31,1,
0.01,-0.03,1.01,-0.06,0.12,-0.18,-37,35,32,1,
0.01,-0.03,1.01,0,0.12,-0.18,-37,39,34,1,
0.01,-0.03,1.01,-0.06,0.06,-0.18,-35,37,29,1,
0.01,-0.03,1.01,0,0.06,-0.18,-37,38,36,1,
0.01,-0.03,1.01,0,0.06,-0.12,-37,39,31,1,
0.01,-0.03,1.01,-0.06,0.06,-0.12,-38,38,36,1,
0.01,-0.03,1.01,0.06,0.12,-0.12,-37,35,36,1,
0.01,-0.03,1.01,0,0.12,-0.18,-38,36,32,1,
0.01,-0.03,1.01,-0.06,0.06,-0.18,-38,36,33,1,
0.01,-0.03,1.01,0,0.12,-0.24,-37,38,32,1,
0.01,-0.03,1.01,0.06,0,-0.18,-37,38,32,1,
0.01,-0.03,1.01,0.06,0.12,-0.18,-38,37,30,1,
0.01,-0.03,1.01,0.12,0.12,-0.12,-36,38,35,1,
0.01,-0.03,1.01,0,0.12,-0.12,-34,37,31,1,
0.01,-0.03,1.01,-0.12,0.24,-0.67,-37,36,33,1,
0.01,-0.03,1.01,-0.12,0.06,-0.67,-36,36,34,1,
0.01,-0.03,1.01,0.06,0,-0.31,-37,36,31,1,
0.01,-0.03,1.01,0,0.06,-0.18,-39,36,34,1,
0.01,-0.03,1.01,0.06,0,-0.37,-34,36,27,1,
0.01,-0.03,1.01,0.06,0.12,-0.12,-38,36,31,1,
0,-0.03,1.01,0,0.18,-0.24,-35,35,35,1,
0.01,-0.03,1.01,0,0,-0.06,-37,38,33,1,
0.01,-0.03,1.01,0,0.06,-0.12,-36,38,28,1,
0.01,-0.03,1.01,-0.12,0.12,-0.12,-38,36,34,1,
0.01,-0.03,1.01,0.06,0,-0.37,-36,38,31,1,
0.01,-0.03,1.01,0,0.12,-1.77,-38,38,31,1,
0.01,-0.03,1.01,-0.24,0.18,-2.38,-36,37,33,1,
0.01,-0.03,1.01,-0.06,0.18,-6.1,-35,38,34,1,
0.01,-0.03,1.01,0.18,0.06,-7.08,-36,38,34,1,
0.01,-0.03,1.01,-0.06,0.37,-7.57,-37,38,34,1,
0.01,-0.03,1.01,-0.18,-0.06,-10.19,-34,34,31,1,
0,-0.03,1.01,-0.06,0.06,-11.17,-35,38,27,1,
0,-0.03,1.01,-0.18,0.18,-14.22,-35,39,36,1,
0.01,-0.03,1.01,-0.18,0.18,-9.83,-34,38,29,1,
0.01,-0.03,1.01,0.12,0.18,-12.27,-32,38,32,1,
0,-0.03,1.01,0.18,0.06,-11.9,-34,36,33,1,
0.01,-0.03,1.01,-0.06,0.24,-12.7,-33,38,35,1,
0.01,-0.03,1.01,-0.06,0,-10.25,-32,36,31,1,
0,-0.03,1.01,0.18,0.18,-11.17,-30,34,33,1,
0,-0.03,1.01,0.06,0.37,-16.36,-31,35,27,1,
0,-0.03,1.01,0.12,0.24,-13.31,-31,34,36,1,
0.01,-0.03,1.01,-0.37,0.24,-15.56,-29,35,29,1,
0.01,-0.03,1.01,-0.24,0.12,-8.42,-28,35,39,1,
0.01,-0.03,1.01,-0.12,0.31,-13.18,-27,37,37,1,
0.01,-0.03,1.01,-0.12,0.31,-12.33,-27,35,33,1,
0.01,-0.03,1.01,-0.06,0.06,-10.25,-28,34,33,1,
0.01,-0.03,1.01,0.18,0.24,-7.75,-27,31,27,1,
0,-0.03,1.01,0,0.24,-2.75,-25,34,33,1,
0.01,-0.03,1.01,-0.43,0.12,-6.04,-26,33,32,1,
0.01,-0.03,1.01,0.06,0.18,-5.68,-27,34,36,1,
0.01,-0.03,1.01,-0.31,0,-2.44,-26,32,31,1,
0.01,-0.03,1.01,-0.12,0.06,-0.12,-24,33,32,1,
0.01,-0.03,1.01,-0.18,0,0.12,-25,34,35,1,
0.01,-0.03,1.01,-0.12,0.12,0.49,-26,31,30,1,
0.01,-0.03,1.01,-0.06,-0.12,1.1,-23,31,29,1,
0.01,-0.03,1.01,0.06,-0.06,1.71,-27,36,27,1,
0.01,-0.03,1.01,0.06,-0.06,1.83,-26,31,28,1,
0,-0.03,1.01,-0.12,0.12,3.11,-25,33,35,1,
0,-0.03,1.01,0.31,0.06,14.1,-24,33,29,1,
0.01,-0.03,1.01,0.06,0.18,19.17,-26,33,31,1,
0.01,-0.02,1.01,0.06,0.18,24.66,-26,35,33,1,
0.01,-0.03,1.01,0,-0.06,26.25,-26,34,29,1,
0.01,-0.03,1.01,0,0.06,32.29,-30,35,32,1,
0.01,-0.03,1.01,0.37,0.06,33.75,-31,38,31,1,
0.01,-0.03,1.01,0.18,-0.12,34.18,-32,39,30,1,
0.01,-0.03,1.01,0.24,-0.12,38.09,-36,39,32,1,
0,-0.03,1.01,0,0,33.63,-39,38,31,1,
0.01,-0.03,1.01,0.49,-0.12,30.94,-38,38,32,1,
0,-0.03,1.01,0.43,-0.31,35.34,-39,35,35,1,
0.02,-0.03,1.01,0.92,-0.06,55.97,-38,38,34,1,
0.01,-0.03,1.01,0.18,-0.31,41.44,-47,35,31,1,
0.01,-0.03,1.01,0.73,-0.06,31.43,-47,36,31,1,
0.01,-0.03,1.01,0.24,0.06,27.4,-45,36,33,1,
0.01,-0.02,1.01,-0.06,0.12,21.24,-51,36,31,1,
0.01,-0.03,1.01,0,0.18,22.09,-49,36,32,1,
0.01,-0.03,1.01,-0.18,0.24,21.79,-50,35,33,1,
0.01,-0.03,1.01,0.06,0.06,18.55,-52,34,33,1,
0.01,-0.03,1.01,0.18,0,12.21,-52,36,35,1,
0.01,-0.03,1.01,0.18,0.06,7.87,-51,32,33,1,
0.01,-0.02,1.01,-0.06,0.06,4.09,-51,34,34,1,
0.01,-0.02,1.01,0.06,0,-0.24,-51,34,33,1,
0.01,-0.03,1.01,-0.06,0.06,-0.49,-52,33,35,1,
0.01,-0.03,1.01,0.12,0,-0.55,-51,35,42,1,
0.01,-0.03,1.01,0.31,0.12,-0.24,-49,32,32,1,
0.01,-0.03,1.01,0.24,0.18,-1.89,-51,34,34,1,
0.01,-0.03,1.01,-0.43,0.37,-4.58,-51,34,29,1,
0.01,-0.03,1.01,-0.43,0,-3.72,-53,34,33,1,
0.01,-0.02,1.01,-0.79,0.06,-10.56,-49,36,31,1,
0.01,-0.03,1.01,-0.31,0.18,-9.83,-51,35,34,1,
0.01,-0.03,1.01,0,0.06,-20.51,-52,32,37,1,
0.01,-0.02,1.01,0,0.12,-18.98,-50,35,32,1,
0.01,-0.02,1.01,0.06,0,-22.77,-47,35,35,1,
0.01,-0.03,1.01,-0.24,0.06,-23.68,-48,37,33,1,
0.01,-0.03,1.01,0.24,0.06,-23.07,-49,38,37,1,
0.01,-0.04,1.01,-0.18,0.24,-24.54,-45,39,37,1,
0.01,-0.03,1.01,-0.06,0.12,-21.12,-43,39,32,1,
0.01,-0.03,1.01,-0.18,0.18,-20.32,-43,36,36,1,
0.01,-0.03,1.01,-0.37,0.12,-20.94,-44,37,32,1,
0.01,-0.03,1.01,-0.31,0.24,-20.39,-43,37,34,1,
0.01,-0.02,1.01,-0.18,0.18,-17.33,-42,40,29,1,
0.01,-0.02,1.01,-0.18,0.12,-18.37,-39,39,32,1,
0.01,-0.07,1.01,-0.37,0.24,-15.14,-38,42,33,1,
0.01,-0.03,1.01,0.12,0.24,-0.43,-38,38,33,1,
0.01,-0.03,1.01,0.06,0.18,-0.06,-40,38,32,1,
0.01,-0.03,1.01,0.24,0.18,0,-41,38,36,1,
0.01,-0.03,1.01,0.18,-0.06,0.61,-36,37,34,1,
0.01,-0.03,1.01,0.12,-0.12,-0.06,-38,38,34,1,
0.01,-0.03,1.01,1.1,0,-0.49,-38,37,33,1,
0.01,-0.03,1.01,0.31,0.06,-0.24,-41,40,33,1,
0.01,-0.03,1.01,0.24,0.24,0.49,-39,41,31,1,
0.01,-0.03,1.01,-0.18,0.31,0,-40,42,31,1,
0.01,-0.03,1.01,0.24,0.06,-0.06,-40,39,27,1,
0.01,-0.03,1.01,0.06,0,0.43,-39,38,27,1,
0.01,-0.03,1.01,0.31,0.12,-0.31,-39,38,33,1,
0.01,-0.03,1.01,-0.37,0.73,-2.62,-38,39,38,1,
0.01,-0.03,1.01,-0.43,0.12,-6.47,-37,38,29,1,
0.01,-0.03,1.01,-1.1,0.06,-7.57,-38,40,36,1,
0.01,-0.03,1.01,-0.37,0.12,-7.69,-38,40,35,1,
0.01,-0.04,1.01,-0.31,0.18,-3.97,-36,39,30,1,
0,-0.03,1.01,-0.12,0.06,-1.16,-36,40,30,1,
0.01,-0.03,1.01,-0.18,0.06,-3.91,-38,39,28,1,
0.01,-0.03,1.01,0,0.18,-3.91,-38,40,28,1,
0.01,-0.03,1.01,-0.06,0.06,-0.98,-39,38,32,1,
0.01,-0.03,1.01,0,0.12,-0.18,-35,38,32,1,
0.01,-0.03,1.01,-0.12,0.31,-0.37,-36,41,28,1,
0.01,-0.03,1.01,-0.24,0.12,0.73,-33,39,30,1,
0.01,-0.03,1.01,-0.18,0.18,0.06,-38,38,27,1,
0.01,-0.03,1.01,-0.43,0.06,0.12,-36,38,31,1,
0.01,-0.03,1.01,0.06,0.06,-0.12,-35,38,34,1,
0.01,-0.02,1.01,0.12,0.18,0.12,-34,36,31,1,
0.01,-0.03,1.01,-0.06,0.06,0.12,-35,41,34,1,
0.01,-0.03,1.01,-0.12,0,-0.06,-38,39,37,1,
0.01,-0.03,1.01,-0.12,0.06,-0.24,-38,38,33,1,
0.01,-0.03,1.01,0,0.06,-0.06,-34,39,33,1,
0.01,-0.03,1.01,-0.06,0.12,-0.12,-34,38,35,1,
0.01,-0.03,1.01,-0.06,0.06,-0.06,-37,41,34,1,
0.01,-0.03,1.01,0,0,-0.12,-36,39,33,1,
0.01,-0.03,1.01,0,0,-0.12,-37,38,31,1,
0.01,-0.03,1.01,0.06,0,-0.12,-35,40,28,1,
0.01,-0.03,1.01,-0.06,0.12,-0.06,-34,39,36,1,
0.01,-0.03,1.01,-0.06,0.06,-0.18,-36,40,28,1,
0.01,-0.03,1.01,0,0.12,-0.24,-35,39,29,1,
0.01,-0.03,1.01,-0.06,0.12,-0.12,-35,41,31,1,
0.01,-0.03,1.01,-0.12,0.12,-0.12,-35,38,29,1,
0.01,-0.03,1.01,0,0.06,-0.18,-36,39,34,1,
0.01,-0.03,1.01,-0.12,0.12,-0.18,-38,40,31,1,
0.01,-0.03,1.01,0,0.06,-0.12,-35,38,29,1,
0.01,-0.03,1.01,-0.12,0,-0.12,-36,39,35,1,
0.01,-0.03,1.01,-0.06,0.12,-0.12,-36,43,32,1,
0.01,-0.03,1.01,0,0,-0.18,-35,39,32,1,
0.01,-0.03,1.01,-0.06,0.06,-0.12,-37,38,33,1,
0.01,-0.03,1.01,0,0.12,0,-35,39,30,1,
0.01,-0.03,1.01,-0.06,0.06,-0.18,-37,39,33,1,
0.01,-0.03,1.01,0,0.06,-0.12,-34,38,31,1,
0.01,-0.03,1.01,0,0.12,-0.18,-38,39,31,1,
0.01,-0.03,1.01,0,0.06,-0.24,-38,39,28,1,
0.01,-0.03,1.01,0,0.12,-0.06,-36,40,31,1,
0.01,-0.03,1.01,-0.06,0.12,-0.18,-36,37,33,1,
0.01,-0.03,1.01,0,0.12,-0.18,-35,40,33,1,
0.01,-0.03,1.01,0,0.06,0,-36,40,31,1,
0.01,-0.03,1.01,-0.06,0.12,-0.18,-36,41,31,1,
0.01,-0.03,1.01,0,0.12,-0.12,-35,39,31,1,
0.01,-0.03,1.01,-0.06,0.18,-0.18,-35,37,33,1,
0.01,-0.03,1.01,0,0.06,-0.12,-35,39,30,1,
0.01,-0.03,1.01,-0.18,0.18,-0.06,-34,38,30,1,
0,-0.03,1.01,0,0.06,-0.06,-37,39,31,1,
0.01,-0.03,1.01,-0.06,0.12,-0.12,-36,37,31,1,
0.01,-0.03,1.01,-0.06,0.12,-0.18,-38,38,32,1,
0.01,-0.03,1.01,-0.06,0,-0.12,-35,39,31,1,
0.01,-0.03,1.01,0.06,0,-0.18,-35,40,27,1,
0.01,-0.03,1.01,-0.06,0.12,-0.12,-36,40,29,1,
0.01,-0.03,1.01,0,0.06,-0.18,-36,38,34,1,
0.01,-0.03,1.01,0.06,0.06,0,-37,39,30,1,
0.01,-0.03,1.01,-0.12,0.12,-0.12,-37,37,32,1,
0.01,-0.03,1.01,-0.06,0,-0.18,-35,39,29,1,
0.01,-0.03,1.01,-0.12,0.12,-0.12,-35,36,30,1,
0.01,-0.03,1.01,-0.06,0.12,-0.18,-35,39,31,1,
0,-0.03,1.01,0,0.18,-0.18,-35,39,36,1,
0.01,-0.03,1.01,-0.06,0.12,-0.18,-37,41,32,1,
0.01,-0.03,1.01,-0.12,0.12,-0.12,-37,40,32,1,
0.01,-0.03,1.01,0.06,0.06,-0.12,-36,38,32,1,
0.01,-0.03,1.01,-0.06,0.12,-0.12,-36,39,33,1,
0.01,-0.03,1.01,0,0,-0.18,-36,38,31,1,
0.01,-0.03,1.01,0.06,0.06,-0.06,-35,38,32,1,
0.01,-0.03,1.01,0,0.06,-0.12,-35,39,32,1,
0.01,-0.03,1.01,-0.06,0.06,-0.12,-36,38,31,1,
0.01,-0.03,1.01,0,0.06,-0.12,-35,38,31,1,
0.01,-0.03,1.01,0.06,0,-0.18,-36,39,31,1,
0.01,-0.03,1.01,0,0.12,-0.18,-39,38,27,1,
0.01,-0.03,1.01,-0.06,0.12,-0.12,-36,38,33,1,
0.01,-0.03,1.01,0.06,0.12,-0.18,-36,40,35,1,
0.01,-0.03,1.01,0,0.12,-0.18,-35,37,32,1,
0.01,-0.03,1.01,0,0.06,-0.06,-35,39,33,1,
0.01,-0.03,1.01,0.06,0,-0.18,-36,40,36,1,
0.01,-0.03,1.01,0.06,0.12,-0.18,-36,38,31,1,
0.01,-0.03,1.01,-0.06,0.12,-0.24,-37,40,31,1,
0.01,-0.03,1.01,-0.06,0.12,-0.12,-37,37,29,1,
0.01,-0.03,1.01,-0.24,0.12,-0.06,-34,38,31,1,
0.01,-0.03,1.01,0,0.06,-0.06,-38,36,34,1,
0.01,-0.03,1.01,0,0.06,-0.06,-37,38,29,1,
0.01,-0.03,1.01,-0.06,0.06,-0.12,-36,37,31,1,
0.01,-0.03,1.01,0,0.12,-0.12,-36,41,32,1,
0.01,-0.03,1.01,-0.06,0.12,-0.18,-35,39,33,1,
0.01,-0.03,1.01,-0.12,0.06,-0.12,-36,38,31,1,
0.01,-0.03,1.01,0.06,0.12,-0.12,-36,39,33,1,
0.01,-0.03,1.01,0,0.12,-0.06,-36,41,32,1,
0.01,-0.03,1.01,-0.12,0.18,-0.24,-37,40,34,1,
0.01,-0.03,1.01,-0.12,0.12,-0.18,-35,41,33,1,
0.01,-0.03,1.01,0,0.12,-0.18,-34,40,29,1,
0.01,-0.03,1.01,0.06,0.12,-0.12,-35,36,34,1,
0.01,-0.03,1.01,-0.06,0.06,-0.12,-36,39,32,1,
0.01,-0.03,1.01,-0.06,0.12,-0.06,-37,41,34,1,
0.01,-0.03,1.01,-0.06,0.06,-0.18,-35,39,31,1,
0.01,-0.03,1.01,-0.06,0.12,-0.06,-34,38,34,1,
0.01,-0.03,1.01,-0.12,0.12,0,-34,40,28,1,
0.01,-0.03,1.01,-0.12,0.12,0.06,-37,38,29,1,
0.01,-0.03,1.01,0,0,-0.12,-36,40,34,1,
0.01,-0.03,1.01,0.12,0.06,-0.06,-37,37,29,1,
0.01,-0.03,1.01,0.18,0.12,0.06,-35,38,37,1,
0.01,-0.03,1.01,-0.12,0.06,-0.18,-36,39,33,1,
0.01,-0.03,1.01,0.06,0.12,-0.12,-37,38,32,1,
0.01,-0.03,1.01,0,0.18,-0.12,-35,42,31,1,
0.01,-0.03,1.01,0.06,0.12,-0.12,-34,41,30,1,
0.01,-0.03,1.01,-0.06,0.06,0,-38,41,33,1,
0.01,-0.03,1.01,0.06,0.12,-0.12,-39,39,30,1,
0,-0.03,1.01,-0.06,0,-0.24,-36,41,32,1,
0.01,-0.03,1.01,0,0.12,-0.06,-35,37,30,1,
0.01,-0.03,1.01,-0.12,0.12,-0.24,-34,40,33,1,
0.01,-0.03,1.01,0,0.18,-0.12,-35,39,30,1,
0.01,-0.03,1.01,0.43,0.49,0.18,-35,38,32,1,
0.01,-0.03,1.01,-0.24,0.06,-0.24,-38,38,38,1,
0.01,-0.03,1.01,-0.12,0,-0.24,-34,39,31,1,
0.01,-0.03,1.01,-0.12,0.06,-0.18,-34,38,34,1,
0.01,-0.03,1.01,0,0,-0.12,-37,42,32,1,
0.01,-0.03,1.01,-0.06,0.12,-0.12,-35,40,31,1,
0.01,-0.03,1.01,-0.06,0.12,-0.18,-36,39,32,1,
0.01,-0.03,1.01,-0.06,0.12,-0.12,-36,38,34,1,
0.01,-0.03,1.01,-0.06,0.12,-0.24,-36,38,32,1,
0.01,-0.03,1.01,-0.12,0.18,-0.24,-35,39,28,1,
0.01,-0.03,1.01,-0.12,0.12,-0.18,-35,39,29,1,
0.01,-0.03,1.01,0,0.06,-0.18,-37,40,32,1,
0.01,-0.03,1.01,-0.06,0.12,-0.18,-36,38,29,1,
0.01,-0.03,1.01,-0.12,0.18,-0.12,-37,39,34,1,
0.01,-0.03,1.01,0,0,-0.18,-36,41,31,1,
0.01,-0.03,1.01,-0.06,0.18,-0.18,-35,38,30,1,
0.01,-0.03,1.01,-0.12,0.12,-0.12,-34,37,28,1,
0.01,-0.03,1.01,-0.06,0.06,-0.18,-36,38,28,1,
0.01,-0.03,1.01,-0.18,0.06,-0.12,-35,39,29,1,
0.01,-0.03,1.01,-0.06,0.06,-0.06,-34,38,30,1,
0.01,-0.03,1.01,0,0.12,-0.12,-35,38,23,1,
0.01,-0.03,1.01,0,0.12,-0.06,-36,38,31,1,
0.01,-0.03,1.01,-0.06,0.12,-0.18,-36,38,33,1,
0.01,-0.03,1.01,-0.06,0.06,-0.18,-35,38,31,1,
0.01,-0.03,1.01,0,0.12,-0.18,-39,38,33,1,
0.01,-0.03,1.01,0,0.12,-0.06,-37,39,28,1,
0.01,-0.03,1.01,-0.06,0.18,0,-38,39,33,1,
0.01,-0.03,1.01,-0.06,0.18,-0.12,-36,37,27,1,
0.01,-0.03,1.01,0.06,0,-0.12,-34,39,28,1,
0.01,-0.03,1.01,-0.06,0.12,-0.12,-35,37,34,1,
0.01,-0.03,1.01,-0.06,0.12,-0.18,-36,40,29,1,
0.01,-0.03,1.01,-0.12,0.06,-0.18,-35,38,29,1,
0.01,-0.03,1.01,-0.06,0.06,-0.12,-36,39,32,1,
0.01,-0.03,1.01,-0.06,0.12,-0.18,-36,40,31,1,
0.01,-0.03,1.01,-0.06,0.06,-0.12,-36,38,29,1,
0.01,-0.03,1.01,0,0.12,-0.12,-35,42,33,1,
0.01,-0.03,1.01,-0.12,0.12,-0.18,-36,41,35,1,
0.01,-0.03,1.01,0,0.12,-0.18,-36,41,29,1,
0.01,-0.03,1.01,-0.06,0.12,-0.18,-34,38,30,1,
0.01,-0.03,1.01,0.06,0.18,-0.24,-36,40,30,1,
0.01,-0.03,1.01,-0.18,0.24,0.24,-37,40,30,1,
0.01,-0.03,1.01,0.31,0.06,-0.43,-35,39,34,1,
0,-0.03,1.01,0.18,0.24,0.06,-34,37,32,1,
0.01,-0.03,1.01,0.06,-0.24,-0.37,-34,39,32,1,
0.01,-0.03,1.01,0.24,0.06,-0.31,-35,38,32,1,
0.01,-0.04,1.01,3.6,-0.18,-0.24,-36,37,31,1,
0.01,-0.04,1.01,0.31,0.12,-0.06,-35,37,31,1,
0.01,-0.04,1.01,0.18,0.18,-0.18,-38,39,31,1,
0.01,-0.04,1.01,0.06,0.12,0,-36,39,33,1,
0.01,-0.04,1.01,0,0.12,0,-35,37,31,1,
0.01,-0.04,1.01,0.06,0,-0.12,-36,38,33,1,
0.01,-0.04,1.01,-0.06,0.12,-0.12,-33,42,33,1,
0.01,-0.04,1.01,0.06,0.18,-0.06,-35,40,31,1,
0.01,-0.04,1.01,-0.12,0.06,0.12,-35,38,33,1,
0.01,-0.04,1.01,0.06,0.12,-0.24,-38,38,32,1,
0.01,-0.04,1.01,0,0.12,-0.18,-36,39,28,1,
0.01,-0.04,1.01,0.12,0.06,-0.12,-34,39,34,1,
0,-0.04,1.01,0.12,0.06,-0.18,-37,37,32,1,
0.01,-0.04,1.01,-0.06,0.06,0,-36,38,30,1,
0.01,-0.04,1.01,0.06,0.12,-0.18,-38,40,30,1,
0.01,-0.04,1.01,0.06,0.12,-0.18,-37,39,28,1,
0.01,-0.04,1.01,-0.12,0.06,-0.06,-36,39,31,1,
0.01,-0.04,1.01,-0.06,0.12,-0.12,-36,41,29,1,
0.01,-0.04,1.01,0,0.06,-0.18,-37,39,31,1,
0.01,-0.04,1.01,-0.06,0.06,-0.06,-35,38,33,1,
0.01,-0.04,1.01,0,0.12,-0.18,-37,38,30,1,
0,-0.04,1.01,-0.06,0,-0.18,-36,39,28,1,
0.01,-0.04,1.01,-0.06,0.06,-0.12,-39,39,33,1,
0.01,-0.04,1.01,0.06,0.06,-0.12,-37,39,28,1,
0.01,-0.04,1.01,0,0.06,0,-38,39,25,1,
0,-0.04,1.01,0.12,0.12,-0.06,-34,38,29,1,
0.01,-0.04,1.01,0,0.06,-0.12,-38,40,33,1,
0.01,-0.04,1.01,-0.06,0.06,-0.18,-38,38,32,1,
0,-0.04,1.01,0,0.06,-0.06,-36,37,29,1,
0.01,-0.04,1.01,-0.06,0.06,-0.12,-36,37,28,1,
0.01,-0.04,1.01,0,0.06,-0.18,-36,39,35,1,
0,-0.04,1.01,0.06,0,-0.06,-34,38,30,1,
0.01,-0.04,1.01,0.12,0.12,-0.12,-35,39,32,1,
0.01,-0.04,1.01,0,0.18,-0.18,-36,38,35,1,
0.01,-0.04,1.01,0.06,0.06,-0.12,-39,39,32,1,
0.01,-0.04,1.01,0.06,0.12,-0.18,-37,36,30,1,
-0.01,-0.02,-1,0,0.06,-0.18,-64,52,-37,2,
-0.01,-0.02,-1,0.06,0.06,-0.18,-63,51,-36,2,
-0.01,-0.02,-1,0.12,0.12,-0.18,-63,51,-37,2,
-0.01,-0.02,-1,-0.06,0.06,-0.12,-62,50,-37,2,
-0.01,-0.02,-1,0,0.06,-0.18,-64,50,-34,2,
-0.01,-0.02,-1,-0.12,0.12,-0.18,-63,52,-36,2,
-0.01,-0.02,-1,-0.18,0.06,-0.12,-61,53,-36,2,
-0.01,-0.02,-1,-0.06,0.12,-0.06,-63,51,-34,2,
-0.01,-0.02,-1,0.06,0.06,-0.18,-62,52,-39,2,
-0.01,-0.02,-1,0,0,-0.12,-62,49,-32,2,
-0.01,-0.02,-1,0,0,-0.12,-64,51,-40,2,
-0.01,-0.02,-1,0,0.06,0,-63,51,-36,2,
-0.01,-0.02,-1,0.06,0.06,0,-64,49,-36,2,
-0.01,-0.02,-1,0.06,0.12,-0.24,-63,51,-40,2,
-0.01,-0.02,-1,-0.06,0.06,-0.12,-64,51,-40,2,
-0.01,-0.02,-1,0,0.06,-0.24,-65,51,-38,2,
-0.01,-0.02,-1,0,0.06,-0.12,-65,51,-38,2,
-0.01,-0.02,-1,0.06,0.06,-0.06,-63,52,-35,2,
-0.01,-0.02,-1,-0.06,0,-0.12,-63,51,-36,2,
-0.01,-0.02,-1,-0.06,0.12,-0.18,-63,49,-34,2,
-0.01,-0.02,-1,0.06,0.06,-0.18,-65,51,-42,2,
-0.01,-0.02,-1,0.06,0.12,-0.06,-65,54,-38,2,
-0.01,-0.02,-1,-0.12,0.06,-0.12,-62,51,-36,2,
-0.01,-0.02,-1,0,0.06,-0.06,-63,51,-35,2,
-0.01,-0.02,-1,0,0,-0.06,-63,48,-38,2,
-0.01,-0.02,-1,0.12,0,-0.12,-64,49,-38,2,
-0.01,-0.02,-1,-0.06,0.06,-0.12,-64,52,-36,2,
-0.01,-0.02,-1,0.12,0.06,-0.06,-64,52,-36,2,
-0.01,-0.02,-1,0.06,-0.06,-0.12,-63,52,-31,2,
-0.01,-0.02,-1,0,0.12,-0.18,-62,51,-42,2,
-0.01,-0.02,-1,0.06,0.12,-0.12,-63,48,-33,2,
-0.01,-0.02,-1,0,0.06,-0.24,-65,51,-36,2,
-0.01,-0.02,-1,0,0.12,-0.18,-63,51,-37,2,
-0.01,-0.02,-1,0.06,0.06,-0.18,-65,51,-36,2,
-0.01,-0.02,-1,-0.06,0.12,0,-66,51,-42,2,
-0.01,-0.02,-1,0.06,0.06,0,-66,52,-39,2,
-0.01,-0.02,-1,0,0.06,-0.18,-61,51,-37,2,
-0.01,-0.02,-1,0.12,0,-0.18,-63,52,-36,2,
-0.01,-0.02,-1,0,0.12,-0.12,-63,51,-33,2,
-0.01,-0.02,-1,-0.12,0.06,-0.24,-65,50,-35,2,
-0.01,-0.02,-1,0.06,-0.06,-0.18,-63,51,-38,2,
-0.01,-0.02,-1,0,0.06,-0.12,-62,52,-37,2,
-0.01,-0.02,-1,0,0.06,-0.12,-63,50,-33,2,
-0.01,-0.02,-1,0,0.12,-0.12,-64,51,-38,2,
-0.01,-0.02,-1,0.06,-0.06,-0.18,-64,51,-38,2,
-0.01,-0.02,-1,-0.06,0.06,-0.12,-65,52,-40,2,
-0.01,-0.02,-1,0.06,0.06,-0.06,-63,52,-37,2,
-0.01,-0.02,-1,0.06,0.06,-0.24,-65,51,-38,2,
-0.01,-0.02,-1,-0.06,-0.06,-0.18,-66,54,-37,2,
-0.01,-0.02,-1,0.06,0.12,-0.18,-63,49,-36,2,
-0.01,-0.02,-1,0,0.12,0,-65,51,-40,2,
-0.01,-0.02,-1,0,0.12,-0.24,-63,52,-36,2,
-0.01,-0.02,-1,0,0.06,-0.24,-64,52,-31,2,
-0.01,-0.02,-1,0,0.06,-0.12,-65,51,-34,2,
-0.01,-0.02,-1,-0.06,0.12,-0.12,-62,50,-34,2,
-0.01,-0.02,-1,0,0.12,-0.12,-65,51,-34,2,
-0.01,-0.02,-1,0,0.06,-0.12,-63,51,-38,2,
-0.01,-0.02,-1,0,0.06,-0.12,-65,52,-35,2,
-0.01,-0.02,-1,-0.12,0.06,-0.06,-63,53,-37,2,
-0.01,-0.02,-1,0.06,0.06,-0.18,-63,49,-36,2,
-0.01,-0.02,-1,0,0.06,-0.12,-65,51,-39,2,
-0.01,-0.02,-1,0,0,-0.12,-63,50,-39,2,
-0.01,-0.02,-1,0.06,0.06,-0.06,-65,50,-37,2,
-0.01,-0.02,-1,0.06,0,-0.31,-63,51,-35,2,
-0.01,-0.02,-1,-0.06,0.06,-0.18,-65,52,-38,2,
-0.01,-0.02,-1,0,0,-0.12,-62,52,-37,2,
-0.01,-0.02,-1,-0.06,0.12,-0.06,-62,55,-40,2,
-0.01,-0.02,-1,0.06,0.06,-0.12,-65,51,-38,2,
-0.01,-0.02,-1,-0.12,0.06,-0.18,-65,54,-34,2,
-0.01,-0.02,-1,0.12,0.06,-0.18,-65,51,-38,2,
-0.01,-0.02,-1,0,0.06,-0.12,-65,54,-38,2,
-0.01,-0.02,-1,0.12,0.06,-0.18,-65,52,-34,2,
-0.01,-0.02,-1,-0.06,0,-0.06,-63,53,-35,2,
-0.01,-0.02,-1,0.06,0.06,-0.12,-62,50,-33,2,
-0.01,-0.02,-1,0.06,0.06,-0.24,-65,53,-36,2,
-0.01,-0.02,-1,0.06,0.06,-0.24,-62,50,-33,2,
-0.01,-0.02,-1,0,0.12,-0.55,-64,51,-37,2,
-0.01,-0.02,-1,0.12,0.06,-0.18,-63,52,-35,2,
-0.01,-0.02,-1,0.24,0.06,-0.31,-64,49,-38,2,
-0.01,-0.02,-1,0.18,0.06,-0.24,-64,51,-38,2,
-0.01,-0.02,-1,-0.12,0.18,0,-64,50,-40,2,
-0.01,-0.02,-1,0,0.06,-0.24,-64,51,-34,2,
-0.01,-0.02,-1,0.12,0.06,-0.12,-62,49,-36,2,
-0.01,-0.02,-1,0,0.06,-0.06,-65,53,-35,2,
-0.01,-0.02,-1,0.06,0.12,-0.24,-63,50,-34,2,
-0.01,-0.02,-1,-0.06,0.06,-0.18,-64,53,-39,2,
-0.01,-0.02,-1,-0.06,0.06,0,-64,51,-34,2,
-0.01,-0.02,-1,0.06,0.06,-0.12,-64,52,-34,2,
-0.01,-0.02,-1,0.12,0.06,-0.06,-65,51,-38,2,
-0.01,-0.02,-1,0.18,0.06,-0.31,-64,51,-39,2,
-0.01,-0.02,-1,-0.24,0.06,-0.12,-63,51,-35,2,
-0.01,-0.02,-1,0,-0.06,-0.12,-63,51,-41,2,
-0.01,-0.02,-1,-0.18,0.12,-0.06,-63,52,-38,2,
-0.01,-0.02,-1,-0.12,0.12,-0.12,-64,51,-38,2,
-0.01,-0.02,-1,0.12,0,-0.18,-63,51,-37,2,
-0.01,-0.02,-1,0.12,0.06,-0.24,-62,51,-36,2,
-0.01,-0.02,-1,-0.06,0.12,-0.18,-64,50,-37,2,
-0.01,-0.02,-1,0.06,0.06,-0.12,-63,50,-33,2,
-0.01,-0.02,-1,-0.12,0.06,-0.06,-64,51,-34,2,
-0.01,-0.02,-1,-0.18,0.12,0.12,-63,52,-37,2,
-0.01,-0.02,-1,-0.06,0.12,-0.24,-61,52,-37,2,
-0.01,-0.02,-1,0.06,0.06,-0.06,-63,53,-40,2,
-0.01,-0.02,-1,0.06,0.06,-0.31,-63,54,-34,2,
-0.01,-0.02,-1,0.12,0,-0.31,-63,51,-36,2,
-0.01,-0.02,-1,-0.06,-0.06,-0.06,-63,52,-36,2,
-0.01,-0.02,-1,0,0,-0.18,-66,51,-38,2,
-0.01,-0.02,-1,0.06,0.12,-0.37,-62,51,-38,2,
-0.01,-0.02,-1,0,0.12,-0.43,-64,51,-32,2,
-0.01,-0.02,-1,-0.24,0.06,-0.06,-65,51,-36,2,
-0.01,-0.02,-1,0,0.12,-0.12,-65,51,-38,2,
-0.01,-0.02,-1,0.18,0.06,-0.24,-66,52,-37,2,
-0.01,-0.02,-1,0,0.12,-0.06,-65,50,-37,2,
-0.01,-0.02,-1,-0.06,-0.06,-0.06,-65,51,-38,2,
-0.01,-0.02,-1,-0.12,0.06,-0.18,-63,52,-34,2,
-0.01,-0.02,-1,0.12,0,-0.18,-62,53,-37,2,
-0.01,-0.02,-1,0.06,0.06,-0.12,-63,53,-36,2,
-0.01,-0.02,-1,-0.12,0,-0.18,-65,51,-39,2,
-0.01,-0.02,-1,0.06,0.06,-0.12,-63,55,-37,2,
-0.01,-0.02,-1,-0.12,0.12,-0.06,-64,53,-40,2,
-0.01,-0.02,-1,0,0,-0.12,-63,52,-36,2,
-0.01,-0.02,-1,0.12,0.06,-0.12,-64,51,-34,2,
-0.01,-0.02,-1,-0.18,0.06,0.06,-65,52,-34,2,
-0.01,-0.02,-1,-0.06,0.12,-0.18,-63,51,-38,2,
-0.01,-0.02,-1,-0.06,0.06,-0.12,-65,50,-33,2,
-0.01,-0.02,-1,-0.06,0,-0.12,-65,53,-36,2,
-0.01,-0.02,-1,0.06,0.06,-0.18,-65,51,-36,2,
-0.01,-0.02,-1,0.06,0.06,-0.06,-65,53,-34,2,
-0.01,-0.02,-1,-0.12,0.06,-0.18,-62,52,-36,2,
-0.01,-0.02,-1,0,0.06,-0.12,-62,52,-36,2,
-0.01,-0.02,-1,0.12,-0.06,-0.18,-63,53,-33,2,
-0.02,-0.01,-1,-0.24,0,-0.49,-64,50,-36,2,
-0.01,-0.02,-1,0.06,0.06,-0.31,-64,50,-34,2,
-0.01,-0.02,-1,0,0.12,0.06,-63,53,-35,2,
-0.01,-0.03,-1,0.18,0.06,-0.12,-63,52,-35,2,
-0.01,-0.02,-1,-0.06,0.06,-0.24,-65,51,-39,2,
-0.01,-0.02,-1,0.24,0.12,-0.67,-64,53,-39,2,
-0.01,-0.02,-1,-0.18,0.12,-0.12,-64,53,-39,2,
-0.01,-0.02,-1,-0.06,0.06,1.4,-61,51,-31,2,
-0.01,-0.02,-1,0,0.12,-0.24,-64,52,-38,2,
-0.01,-0.02,-1,-0.06,0.06,-0.55,-62,52,-31,2,
-0.01,-0.02,-1,-0.12,0.06,-0.37,-64,53,-36,2,
-0.01,-0.02,-1,0,0.06,-0.12,-65,51,-40,2,
-0.01,-0.02,-1,-0.24,0.06,-0.43,-65,52,-33,2,
-0.01,-0.02,-1,-0.06,0.06,-0.37,-65,52,-34,2,
-0.01,-0.02,-1,0.18,0.12,-0.18,-65,49,-39,2,
-0.01,-0.02,-1,0.06,0.06,-0.61,-63,52,-38,2,
-0.01,-0.02,-1,-0.12,0.24,-0.61,-63,49,-38,2,
-0.05,-0.02,-1,0.31,0,-1.53,-63,52,-33,2,
-0.01,-0.02,-1,-0.06,0.24,-0.37,-63,50,-36,2,
-0.01,-0.02,-1,0.06,-0.06,-0.73,-64,51,-37,2,
-0.01,-0.03,-1,-0.61,0.18,-0.18,-63,52,-34,2,
-0.01,-0.02,-1,0.24,-0.12,-0.18,-63,52,-36,2,
-0.01,-0.02,-1,0.12,0.12,-0.49,-64,51,-36,2,
-0.01,-0.02,-1,0.06,0.06,-0.06,-63,51,-35,2,
-0.01,-0.02,-1,0,0.12,0.31,-66,55,-37,2,
-0.01,-0.02,-1,-0.18,0.12,-0.18,-63,50,-36,2,
-0.01,-0.02,-1,0,0.12,-0.24,-63,50,-37,2,
-0.01,-0.02,-1,0.12,0.06,0.12,-64,52,-36,2,
-0.01,-0.01,-1,9.09,0.12,-0.31,-64,52,-34,2,
-0.01,-0.01,-0.99,-5.25,0.06,-0.12,-63,52,-37,2,
-0.01,-0.01,-1,-0.12,0,-0.06,-63,51,-37,2,
-0.01,-0.02,-1,0.55,0,-0.18,-63,51,-37,2,
-0.01,-0.02,-1,0.18,0,0.18,-64,48,-36,2,
-0.01,-0.02,-1,0.61,0.06,-1.28,-63,50,-34,2,
-0.01,0,-1,0.18,0.18,-0.92,-65,51,-35,2,
-0.01,-0.03,-1,-0.18,0.06,-0.49,-63,50,-34,2,
-0.01,-0.02,-1,-0.18,0,-0.12,-64,51,-37,2,
-0.01,-0.02,-1,0.43,0.12,0.85,-61,51,-37,2,
-0.01,-0.01,-1,-0.06,-0.12,2.93,-61,49,-40,2,
-0.01,-0.02,-1,-0.06,0,-0.24,-63,51,-34,2,
-0.01,-0.02,-1,-0.12,0.06,-0.24,-66,50,-38,2,
-0.01,-0.02,-1,-0.24,0.06,-0.61,-65,51,-35,2,
-0.01,-0.02,-1,0.55,-0.12,0.06,-65,50,-39,2,
-0.01,-0.02,-1,0.18,0,0.85,-63,50,-38,2,
